probe voltage (V), probe current (A), resistance (9.9e37 if not enabled) , timestamp , status word ,
-4.600000E+01,-1.076659E-07,+9.910000E+37,+3.259372E+03,+2.150800E+04,
-4.590000E+01,-8.796698E-08,+9.910000E+37,+3.260432E+03,+2.150800E+04,
-4.580000E+01,-8.039042E-08,+9.910000E+37,+3.261510E+03,+2.150800E+04,
-4.570000E+01,-7.533935E-08,+9.910000E+37,+3.262569E+03,+2.150800E+04,
-4.560000E+01,-7.230871E-08,+9.910000E+37,+3.263627E+03,+2.150800E+04,
-4.550000E+01,-7.180362E-08,+9.910000E+37,+3.264685E+03,+2.150800E+04,
-4.540000E+01,-6.422708E-08,+9.910000E+37,+3.265744E+03,+2.150800E+04,
-4.530000E+01,-6.119646E-08,+9.910000E+37,+3.266804E+03,+2.150800E+04,
-4.520000E+01,-5.513523E-08,+9.910000E+37,+3.267865E+03,+2.150800E+04,
-4.510000E+01,-5.463012E-08,+9.910000E+37,+3.268952E+03,+2.150800E+04,
-4.500000E+01,-5.463008E-08,+9.910000E+37,+3.270013E+03,+2.150800E+04,
-4.490000E+01,-5.210458E-08,+9.910000E+37,+3.271092E+03,+2.150800E+04,
-4.480000E+01,-4.048719E-08,+9.910000E+37,+3.272153E+03,+2.150800E+04,
-4.470000E+01,-4.604332E-08,+9.910000E+37,+3.273213E+03,+2.150800E+04,
-4.460000E+01,-4.301269E-08,+9.910000E+37,+3.274271E+03,+2.150800E+04,
-4.450000E+01,-3.644637E-08,+9.910000E+37,+3.275328E+03,+2.150800E+04,
-4.440000E+01,-3.745657E-08,+9.910000E+37,+3.276385E+03,+2.150800E+04,
-4.430000E+01,-3.543614E-08,+9.910000E+37,+3.277445E+03,+2.150800E+04,
-4.420000E+01,-2.988001E-08,+9.910000E+37,+3.278508E+03,+2.150800E+04,
-4.410000E+01,-2.735448E-08,+9.910000E+37,+3.279593E+03,+2.150800E+04,
-4.400000E+01,-2.129324E-08,+9.910000E+37,+3.280653E+03,+2.150800E+04,
-4.390000E+01,-1.927283E-08,+9.910000E+37,+3.281712E+03,+2.150800E+04,
-4.380000E+01,-1.826262E-08,+9.910000E+37,+3.282771E+03,+2.150800E+04,
-4.370000E+01,-1.472688E-08,+9.910000E+37,+3.283830E+03,+2.150800E+04,
-4.360000E+01,-9.675856E-09,+9.910000E+37,+3.284890E+03,+2.150800E+04,
-4.350000E+01,-1.068607E-08,+9.910000E+37,+3.285947E+03,+2.150800E+04,
-4.340000E+01,-4.119716E-09,+9.910000E+37,+3.287009E+03,+2.150800E+04,
-4.330000E+01,+4.262192E-10,+9.910000E+37,+3.288068E+03,+2.150800E+04,
-4.320000E+01,-6.140129E-09,+9.910000E+37,+3.289128E+03,+2.150800E+04,
-4.310000E+01,+1.941428E-09,+9.910000E+37,+3.290188E+03,+2.150800E+04,
-4.300000E+01,+4.466692E-09,+9.910000E+37,+3.291245E+03,+2.150800E+04,
-4.290000E+01,-2.099298E-09,+9.910000E+37,+3.292306E+03,+2.150800E+04,
-4.280000E+01,+1.002227E-08,+9.910000E+37,+3.293367E+03,+2.150800E+04,
-4.270000E+01,+1.002227E-08,+9.910000E+37,+3.294427E+03,+2.150800E+04,
-4.260000E+01,+1.709302E-08,+9.910000E+37,+3.295512E+03,+2.150800E+04,
-4.250000E+01,+8.507111E-09,+9.910000E+37,+3.296574E+03,+2.150800E+04,
-4.240000E+01,+1.709301E-08,+9.910000E+37,+3.297633E+03,+2.150800E+04,
-4.230000E+01,+1.557784E-08,+9.910000E+37,+3.298693E+03,+2.150800E+04,
-4.220000E+01,+1.860816E-08,+9.910000E+37,+3.299753E+03,+2.150800E+04,
-4.210000E+01,+1.860815E-08,+9.910000E+37,+3.300813E+03,+2.150800E+04,
-4.200000E+01,+2.113342E-08,+9.910000E+37,+3.301871E+03,+2.150800E+04,
-4.190000E+01,+2.567891E-08,+9.910000E+37,+3.302932E+03,+2.150800E+04,
-4.180000E+01,+2.769909E-08,+9.910000E+37,+3.303990E+03,+2.150800E+04,
-4.170000E+01,+2.769911E-08,+9.910000E+37,+3.305049E+03,+2.150800E+04,
-4.160000E+01,+3.274963E-08,+9.910000E+37,+3.306128E+03,+2.150800E+04,
-4.150000E+01,+3.022436E-08,+9.910000E+37,+3.307208E+03,+2.150800E+04,
-4.140000E+01,+3.628499E-08,+9.910000E+37,+3.308269E+03,+2.150800E+04,
-4.130000E+01,+4.436582E-08,+9.910000E+37,+3.309328E+03,+2.150800E+04,
-4.120000E+01,+3.679006E-08,+9.910000E+37,+3.310387E+03,+2.150800E+04,
-4.110000E+01,+4.083049E-08,+9.910000E+37,+3.311445E+03,+2.150800E+04,
-4.100000E+01,+4.689108E-08,+9.910000E+37,+3.312506E+03,+2.150800E+04

current through plasma (-mA) <tab> voltage across plasma (-V) <tab> time (sec)
3.392170	436.679280	0.001000
3.379770	437.651633	0.101000
3.390076	436.895643	0.201000
3.395159	436.488494	0.301000
3.384417	437.283407	0.401000
3.383005	437.381601	0.501000
3.393203	436.584310	0.601000
3.390661	436.775267	0.703000
3.381193	437.478169	0.802000
3.387135	437.029862	0.902000
3.394587	436.463247	1.001000
3.386310	437.052924	1.101000
3.381330	437.469169	1.201000
3.391728	436.664725	1.301000
3.392308	436.611899	1.401000
3.381135	437.414884	1.504000
3.384906	437.139740	1.601000
3.395445	436.398936	1.701000
3.389576	436.847341	1.801000
3.380242	437.519437	1.901000
3.388695	436.866195	2.001000
3.394390	436.409498	2.101000
3.384612	437.146384	2.202000
3.381855	437.369619	2.301000
3.392581	436.556166	2.401000
3.391561	436.621681	2.501000
3.380751	437.460220	2.601000
3.385941	437.117845	2.701000
3.393984	436.478551	2.801000
3.386743	436.968775	2.901000
3.380734	437.447381	3.001000
3.390710	436.704650	3.101000
3.393978	436.477830	3.201000
3.382008	437.363773	3.301000
3.382569	437.303962	3.401000
3.393805	436.422309	3.501000
3.389574	436.738939	3.601000
3.381063	437.416772	3.701000
3.387202	436.949555	3.801000
3.393198	436.459186	3.901000
3.384995	437.057396	4.001000
3.381325	437.351833	4.101000
3.391518	436.617501	4.203000
3.391356	436.573520	4.301000
3.381383	437.283752	4.401000
3.384628	437.072728	4.501000
3.393258	436.446748	4.601000
3.386953	436.924418	4.701000
3.378964	437.506006	4.801000
3.388487	436.759194	4.901000
3.393759	436.338788	5.001000
3.382597	437.183009	5.101000
3.380743	437.331399	5.201000
3.390528	436.596975	5.301000
3.389452	436.627093	5.401000
3.379669	437.366320	5.501000
3.384861	436.992058	5.601000
3.392089	436.443617	5.701000
3.383653	437.022238	5.801000
3.379250	437.343941	5.901000
3.389212	436.614082	6.001000
3.391082	436.474210	6.101000
3.379449	437.361156	6.201000
3.381767	437.149780	6.301000
3.392126	436.319940	6.401000
3.385873	436.757708	6.501000
3.376992	437.470533	6.601000
3.384559	436.910074	6.701000
3.391067	436.382728	6.801000
3.381933	437.019747	6.902000
3.378648	437.253050	7.001000
3.388120	436.544913	7.101000
3.386928	436.603429	7.201000
3.377782	437.262268	7.301000
3.382298	436.921364	7.401000
3.390621	436.334218	7.501000
3.382562	436.929604	7.601000
3.376166	437.401170	7.701000
3.385957	436.646100	7.801000
3.389228	436.327773	7.901000
3.378553	437.122690	8.001000
3.377379	437.219503	8.101000
3.388659	436.349758	8.201000
3.384994	436.553903	8.301000
3.375286	437.249635	8.401000
3.380540	436.850779	8.501000
3.386932	436.345808	8.601000
3.379239	436.872837	8.701000
3.375339	437.154535	8.801000
3.385193	436.426784	8.901000
3.384985	436.445949	9.001000
3.374499	437.235179	9.101000
3.378003	436.944876	9.201000
3.387804	436.161007	9.301000
3.380798	436.652281	9.401000
3.372786	437.294637	9.501000
3.381514	436.677602	9.601000
3.386656	436.229629	9.701000
3.376244	436.955601	9.802000
3.374252	437.093085	9.904000
3.384719	436.295275	10.001000
3.383201	436.364263	10.101000
3.372720	437.116133	10.202000
3.377370	436.755688	10.301000
3.384118	436.232491	10.401000
3.376946	436.721722	10.501000
3.371587	437.129116	10.601000
3.380829	436.363441	10.701000
3.382640	436.156458	10.801000
3.371606	436.970796	10.901000
3.371576	436.966766	11.001000
3.381836	436.157832	11.101000
3.377498	436.351501	11.201000
3.367885	436.993705	11.301000
3.373567	436.506361	11.402000
3.380658	435.898760	11.501000
3.370810	436.593784	11.601000
3.365691	436.924651	11.701000
3.375788	436.125014	11.801000
3.376938	436.081674	11.901000
3.368481	436.901974	12.001000
3.373840	436.738614	12.101000
3.384695	436.104125	12.201000
3.380130	436.607071	12.301000
3.373717	437.260904	12.401000
3.384317	436.639780	12.501000
3.390656	436.267454	12.601000
3.380346	437.121619	12.701000
3.379377	437.236705	12.801000
3.390522	436.487185	12.901000
3.390766	436.560850	13.001000
3.381328	437.350853	13.101000
3.386130	437.026713	13.201000
3.394384	436.451293	13.301000
3.388703	436.909451	13.401000
3.383021	437.411830	13.501000
3.392066	436.783512	13.601000
3.394612	436.585623	13.702000
3.385466	437.278661	13.801000
3.386664	437.242965	13.901000
3.396638	436.551972	14.001000
3.393071	436.826469	14.101000
3.383217	437.578973	14.201000
3.390883	436.980893	14.301000
3.398385	436.436649	14.401000
3.389889	437.128299	14.503000
3.385382	437.500514	14.601000
3.395149	436.769292	14.701000
3.396774	436.659154	14.801000
3.386997	437.419288	14.901000
3.389641	437.265599	15.001000
3.399014	436.610190	15.101000
3.393596	437.014956	15.202000
3.387749	437.526318	15.301000
3.396513	436.950952	15.401000
3.400773	436.667015	15.501000
3.390195	437.456922	15.601000
3.389466	437.481202	15.701000
3.401103	436.612927	15.801000
3.398756	436.824519	15.901000
3.387870	437.706881	16.001000
3.393194	437.333518	16.101000
3.401652	436.683139	16.201000
3.395234	437.159551	16.302000
3.389907	437.584901	16.401000
3.398564	436.994342	16.501000
3.400898	436.798322	16.601000
3.391584	437.479493	16.701000
3.392791	437.443571	16.801000
3.402636	436.753219	16.901000
3.398041	437.101480	17.001000
3.389916	437.687085	17.101000
3.397428	437.131736	17.201000
3.404039	436.649773	17.301000
3.394450	437.410983	17.401000
3.390169	437.782266	17.501000
3.401800	436.904482	17.601000
3.402340	436.825273	17.701000
3.392348	437.593107	17.801000
3.394759	437.458214	17.901000
3.403713	436.817560	18.003000
3.398417	437.204288	18.101000
3.391957	437.691069	18.201000
3.400409	437.089007	18.301000
3.404628	436.797836	18.401000
3.394106	437.575771	18.501000
3.394241	437.568576	18.602000
3.405001	436.769571	18.701000
3.401702	437.045085	18.801000
3.392453	437.782837	18.901000
3.398096	437.393178	19.001000
3.406838	436.717300	19.101000
3.399517	437.246228	19.201000
3.392712	437.787350	19.301000
3.402265	437.125723	19.401000
3.405997	436.836606	19.501000
3.395916	437.611838	19.601000
3.397361	437.518608	19.701000
3.406621	436.885573	19.801000
3.402295	437.196535	19.901000
3.394527	437.791112	20.001000
3.402307	437.202621	20.102000
3.407788	436.793376	20.201000
3.398427	437.516199	20.301000
3.395593	437.796767	20.401000
3.406513	436.990811	20.501000
3.406114	436.964595	20.601000
3.395190	437.775228	20.701000
3.398940	437.520021	20.802000
3.408768	436.805113	20.902000
3.402677	437.259005	21.001000
3.395394	437.808739	21.101000
3.403954	437.167418	21.201000
3.407371	436.904933	21.302000
3.397995	437.611556	21.401000
3.398676	437.554506	21.501000
3.408837	436.787093	21.601000
3.404626	437.126190	21.701000
3.395493	437.846125	21.801000
3.402540	437.351348	21.901000
3.409836	436.779071	22.001000
3.401019	437.419928	22.101000
3.396365	437.767315	22.201000
3.407162	437.017169	22.301000
3.408969	436.913399	22.401000
3.398369	437.741452	22.501000
3.400087	437.599869	22.605000
3.409548	436.884293	22.701000
3.404817	437.214224	22.801000
3.397503	437.786452	22.901000
3.405467	437.197132	23.001000
3.409627	436.875594	23.101000
3.400893	437.540867	23.201000
3.398001	437.792843	23.302000
3.409431	436.956303	23.401000
3.408324	437.004299	23.501000
3.397907	437.759971	23.601000
3.401916	437.461590	23.701000
3.410895	436.801834	23.801000
3.403721	437.348555	23.901000
3.396706	437.884507	24.001000
3.405724	437.198157	24.101000
3.410185	436.829893	24.201000
3.400560	437.555351	24.301000
3.399634	437.660566	24.401000
3.409149	436.931558	24.501000
3.405937	437.153019	24.601000
3.397632	437.816098	24.701000
3.404820	437.334926	24.801000
3.411962	436.827178	24.901000
3.402117	437.525077	25.001000
3.398305	437.809475	25.101000
3.408986	437.023721	25.201000
3.410044	436.993198	25.301000
3.399587	437.789872	25.401000
3.401720	437.627447	25.501000
3.411672	436.877737	25.601000
3.406314	437.265533	25.705000
3.398740	437.883575	25.801000
3.405791	437.354207	25.901000
3.411750	436.900507	26.001000
3.402814	437.542764	26.101000
3.400337	437.783940	26.201000
3.411144	437.002625	26.301000
3.408798	437.157700	26.401000
3.398642	437.904484	26.501000
3.404373	437.478771	26.601000
3.413176	436.849172	26.707000
3.405282	437.468933	26.801000
3.398367	438.003138	26.901000
3.408623	437.191982	27.001000
3.412283	436.878373	27.101000
3.401299	437.730044	27.205000
3.401019	437.773813	27.301000
3.411257	437.010686	27.401000
3.408833	437.167562	27.501000
3.399472	437.876621	27.601000
3.405928	437.449785	27.707000
3.412283	436.962218	27.802000
3.403597	437.551310	27.901000
3.399662	437.838940	28.001000
3.410506	437.054481	28.101000
3.411035	437.037582	28.201000
3.399849	437.881055	28.301000
3.402351	437.691248	28.401000
3.412764	436.858732	28.501000
3.407196	437.259652	28.602000
3.398907	437.915797	28.707000
3.406766	437.352622	28.801000
3.412155	436.937941	28.902000
3.403079	437.610096	29.001000
3.400682	437.802945	29.101000
3.411443	437.041078	29.201000
3.409994	437.141113	29.301000
3.400412	437.840425	29.401000
3.405257	437.516497	29.501000
3.413651	436.913459	29.601000
3.405721	437.532038	29.701000
3.399351	438.026465	29.801000
3.409784	437.227317	29.901000
3.413677	436.884813	30.002000
3.402751	437.728874	30.101000
3.401307	437.885770	30.201000
3.412856	437.029481	30.301000
3.410552	437.178466	30.401000
3.401089	437.890981	30.501000
3.406555	437.506512	30.601000
3.414116	436.935088	30.701000
3.406088	437.504142	30.801000
3.400628	437.899657	30.902000
3.410974	437.132953	31.001000
3.412752	437.001025	31.101000
3.402081	437.854717	31.201000
3.404750	437.668908	31.302000
3.414904	436.872782	31.401000
3.409483	437.239518	31.501000
3.399138	438.025494	31.601000
3.407774	437.408166	31.701000
3.414728	436.877566	31.806000
3.405237	437.570862	31.901000
3.401287	437.867036	32.001000
3.411980	437.094498	32.101000
3.412232	437.074940	32.201000
3.402284	437.815960	32.301000
3.405492	437.588032	32.402000
3.414257	436.943767	32.501000
3.408473	437.386784	32.601000
3.401181	437.952543	32.701000
3.410220	437.270666	32.801000
3.413740	436.956356	32.903000
3.403876	437.662103	33.001000
3.402144	437.837360	33.101000
3.414320	436.943483	33.201000
3.411523	437.160403	33.301000
3.400844	437.941294	33.401000
3.405995	437.540793	33.502000
3.415126	436.841319	33.601000
3.407892	437.390092	33.701000
3.401574	437.875635	33.801000
3.410825	437.207204	33.901000
3.413600	436.977894	34.001000
3.403576	437.758913	34.101000
3.404599	437.692689	34.201000
3.414480	436.953038	34.301000
3.409908	437.248128	34.402000
3.402079	437.833158	34.502000
3.409074	437.378418	34.601000
3.415705	436.901583	34.702000
3.406053	437.606072	34.801000
3.401555	437.923678	34.901000
3.413265	437.040105	35.001000
3.413684	437.015899	35.102000
3.402909	437.837847	35.201000
3.405847	437.628213	35.301000
3.414369	436.965421	35.401000
3.409194	437.356830	35.501000
3.402277	437.881354	35.601000
3.410626	437.290844	35.701000
3.415229	436.901601	35.801000
3.404963	437.638880	35.901000
3.403901	437.771238	36.001000
3.414205	437.042773	36.101000
3.412218	437.200031	36.201000
3.402362	437.928388	36.302000
3.407891	437.483820	36.401000
3.416961	436.809669	36.501000
3.408958	437.428936	36.601000
3.402206	437.978968	36.701000
3.411635	437.258845	36.801000
3.415111	436.986991	36.901000
3.405299	437.698917	37.001000
3.405522	437.720876	37.101000
3.415016	436.985149	37.201000
3.411293	437.224796	37.301000
3.402422	437.884888	37.401000
3.409551	437.418468	37.501000
3.416107	436.953535	37.601000
3.406790	437.651184	37.701000
3.403071	437.880344	37.801000
3.413824	437.064067	37.901000
3.414366	437.011610	38.001000
3.403070	437.884803	38.101000
3.405609	437.711050	38.201000
3.416141	436.882998	38.301000
3.410195	437.298544	38.401000
3.401611	437.950487	38.501000
3.410331	437.308550	38.604000
3.413732	437.010483	38.701000
3.404577	437.658873	38.801000
3.403675	437.750227	38.902000
3.414295	437.010559	39.001000
3.410930	437.245734	39.101000
3.400992	437.972901	39.201000
3.407368	437.471491	39.301000
3.415800	436.817298	39.401000
3.407186	437.475464	39.501000
3.401316	437.946460	39.601000
3.411655	437.159549	39.703000
3.414022	436.926625	39.801000
3.402470	437.731219	39.901000
3.403137	437.711754	40.001000
3.413244	436.955492	40.101000
3.409147	437.208326	40.201000
3.400990	437.824736	40.301000
3.408108	437.329123	40.401000
3.413360	436.958258	40.501000
3.404252	437.639184	40.601000
3.401722	437.813314	40.701000
3.412722	436.942791	40.801000
3.411592	437.029301	40.901000
3.400858	437.878567	41.001000
3.404718	437.615890	41.101000
3.414795	436.819989	41.201000
3.407699	437.307104	41.301000
3.400590	437.847708	41.401000
3.408715	437.261389	41.501000
3.413869	436.854587	41.601000
3.403706	437.612930	41.701000
3.401965	437.761547	41.801000
3.412015	437.011761	41.901000
3.409714	437.186363	42.001000
3.401074	437.795806	42.101000
3.406108	437.418249	42.201000
3.414055	436.800261	42.301000
3.405906	437.407066	42.402000
3.400041	437.908400	42.501000
3.410039	437.189385	42.601000
3.413415	436.903307	42.701000
3.402920	437.640200	42.801000
3.402350	437.705100	42.902000
3.413117	436.909782	43.002000
3.410332	437.120665	43.102000
3.401152	437.798894	43.201000
3.405918	437.460860	43.301000
3.414525	436.819183	43.401000
3.406508	437.402441	43.501000
3.401368	437.798049	43.601000
3.410405	437.112578	43.701000
3.412339	436.953534	43.801000
3.402087	437.724634	43.901000
3.403753	437.647462	44.001000
3.414337	436.875955	44.101000
3.409857	437.169511	44.201000
3.400206	437.862757	44.301000
3.407425	437.307600	44.401000
3.414812	436.814841	44.501000
3.405694	437.484124	44.601000
3.401267	437.798174	44.702000
3.412050	436.986125	44.801000
3.412452	436.923074	44.902000
3.401513	437.725953	45.001000
3.403050	437.601476	45.101000
3.412923	436.853648	45.201000
3.408611	437.128092	45.301000
3.400741	437.747163	45.401000
3.407736	437.242245	45.501000
3.412319	436.901994	45.601000
3.402594	437.578451	45.701000
3.401577	437.634359	45.801000
3.412163	436.867859	45.901000
3.410611	437.007402	46.001000
3.400343	437.798584	46.101000
3.404354	437.480270	46.201000
3.413485	436.763201	46.301000
3.406593	437.271613	46.401000
3.399404	437.828266	46.501000
3.408947	437.112700	46.601000
3.413458	436.773665	46.701000
3.403224	437.532591	46.802000
3.402837	437.621752	46.901000
3.411765	436.960847	47.001000
3.409090	437.116269	47.101000
3.400502	437.716762	47.201000
3.407126	437.226254	47.301000
3.413849	436.754855	47.401000
3.404049	437.492472	47.501000
3.399327	437.829719	47.602000
3.410805	436.941159	47.701000
3.412046	436.822952	47.801000
3.400563	437.699855	47.901000
3.403107	437.523637	48.001000
3.412964	436.766274	48.101000
3.406861	437.180194	48.201000
3.399811	437.748679	48.301000
3.407243	437.233337	48.401000
3.413117	436.781363	48.501000
3.403279	437.487316	48.601000
3.402363	437.555412	48.701000
3.411658	436.893616	48.801000
3.408758	437.135630	48.906000
3.399346	437.838080	49.001000
3.405955	437.346807	49.101000
3.414325	436.670932	49.201000
3.405316	437.324522	49.301000
3.398981	437.834374	49.401000
3.409049	437.117569	49.501000
3.411620	436.867936	49.602000
3.401628	437.581983	49.701000
3.402091	437.592479	49.801000
3.412098	436.862785	49.901000
3.408917	437.085043	50.001000
3.399825	437.757895	50.101000
3.406718	437.258834	50.201000
3.412698	436.823041	50.301000
3.403892	437.521491	50.401000
3.401442	437.717159	50.501000
3.412248	436.885570	50.601000
3.411257	436.951161	50.702000
3.400150	437.806136	50.801000
3.403928	437.542666	50.901000
3.413866	436.798089	51.002000
3.407115	437.285913	51.101000
3.400253	437.815790	51.201000
3.408648	437.220139	51.301000
3.412937	436.873787	51.401000
3.402836	437.631641	51.501000
3.402690	437.614699	51.601000
3.413044	436.846413	51.701000
3.409486	437.129464	51.801000
3.400537	437.829694	51.901000
3.407288	437.339285	52.001000
3.414054	436.790240	52.101000
3.404239	437.498542	52.201000
3.400822	437.779984	52.301000
3.412015	436.970241	52.401000
3.412778	436.915511	52.501000
3.401402	437.751353	52.601000
3.404430	437.545720	52.701000
3.414018	436.821572	52.801000
3.408261	437.233956	52.901000
3.401137	437.758782	53.001000
3.408976	437.183482	53.102000
3.413040	436.898053	53.201000
3.403403	437.648026	53.301000
3.403059	437.669812	53.401000
3.413014	436.887545	53.501000
3.410342	437.030669	53.601000
3.400339	437.786058	53.701000
3.407445	437.293322	53.801000
3.414988	436.759462	53.901000
3.405075	437.481981	54.001000
3.400770	437.798844	54.101000
3.411196	437.034004	54.201000
3.413442	436.846656	54.301000
3.403100	437.639790	54.401000
3.404313	437.544061	54.501000
3.413658	436.862178	54.601000
3.409362	437.201792	54.701000
3.401446	437.808134	54.801000
3.409554	437.206443	54.901000
3.414126	436.816212	55.001000
3.404523	437.517584	55.101000
3.403107	437.642608	55.201000
3.413585	436.893904	55.301000
3.411657	436.999754	55.401000
3.401031	437.789702	55.501000
3.406459	437.368683	55.601000
3.415878	436.667430	55.701000
3.407949	437.260742	55.801000
3.400553	437.833562	55.901000
3.409913	437.125844	56.001000
