probe voltage (V), probe current (A), resistance (9.9e37 if not enabled) , timestamp , status word ,
-4.600000E+01,-1.142334E-07,+9.910000E+37,+2.447528E+03,+2.150800E+04,
-4.599000E+01,-9.150354E-08,+9.910000E+37,+2.448604E+03,+2.150800E+04,
-4.598000E+01,-8.897806E-08,+9.910000E+37,+2.449681E+03,+2.150800E+04,
-4.597000E+01,-8.342188E-08,+9.910000E+37,+2.450752E+03,+2.150800E+04,
-4.596000E+01,-8.746269E-08,+9.910000E+37,+2.451811E+03,+2.150800E+04,
-4.595000E+01,-8.241161E-08,+9.910000E+37,+2.452871E+03,+2.150800E+04,
-4.594000E+01,-8.443202E-08,+9.910000E+37,+2.453928E+03,+2.150800E+04,
-4.593000E+01,-8.392694E-08,+9.910000E+37,+2.454987E+03,+2.150800E+04,
-4.592000E+01,-8.594735E-08,+9.910000E+37,+2.456044E+03,+2.150800E+04,
-4.591000E+01,-8.443205E-08,+9.910000E+37,+2.457102E+03,+2.150800E+04,
-4.590000E+01,-8.140135E-08,+9.910000E+37,+2.458163E+03,+2.150800E+04,
-4.589000E+01,-8.190651E-08,+9.910000E+37,+2.459221E+03,+2.150800E+04,
-4.588000E+01,-7.988604E-08,+9.910000E+37,+2.460279E+03,+2.150800E+04,
-4.587000E+01,-8.039117E-08,+9.910000E+37,+2.461335E+03,+2.150800E+04,
-4.586000E+01,-8.342177E-08,+9.910000E+37,+2.462409E+03,+2.150800E+04,
-4.585000E+01,-8.190649E-08,+9.910000E+37,+2.463468E+03,+2.150800E+04,
-4.584000E+01,-8.291676E-08,+9.910000E+37,+2.464526E+03,+2.150800E+04,
-4.583000E+01,-8.140137E-08,+9.910000E+37,+2.465582E+03,+2.150800E+04,
-4.582000E+01,-8.089625E-08,+9.910000E+37,+2.466662E+03,+2.150800E+04,
-4.581000E+01,-8.140137E-08,+9.910000E+37,+2.467722E+03,+2.150800E+04,
-4.580000E+01,-7.887591E-08,+9.910000E+37,+2.468779E+03,+2.150800E+04,
-4.579000E+01,-8.190641E-08,+9.910000E+37,+2.469838E+03,+2.150800E+04,
-4.578000E+01,-8.039112E-08,+9.910000E+37,+2.470918E+03,+2.150800E+04,
-4.577000E+01,-8.241158E-08,+9.910000E+37,+2.471978E+03,+2.150800E+04,
-4.576000E+01,-7.887585E-08,+9.910000E+37,+2.473034E+03,+2.150800E+04,
-4.575000E+01,-7.988604E-08,+9.910000E+37,+2.474092E+03,+2.150800E+04,
-4.574000E+01,-7.837070E-08,+9.910000E+37,+2.475149E+03,+2.150800E+04,
-4.573000E+01,-8.089620E-08,+9.910000E+37,+2.476207E+03,+2.150800E+04,
-4.572000E+01,-7.887581E-08,+9.910000E+37,+2.477265E+03,+2.150800E+04,
-4.571000E+01,-8.039115E-08,+9.910000E+37,+2.478322E+03,+2.150800E+04,
-4.570000E+01,-8.039112E-08,+9.910000E+37,+2.479381E+03,+2.150800E+04,
-4.569000E+01,-7.988601E-08,+9.910000E+37,+2.480463E+03,+2.150800E+04,
-4.568000E+01,-8.089622E-08,+9.910000E+37,+2.481520E+03,+2.150800E+04,
-4.567000E+01,-7.534001E-08,+9.910000E+37,+2.482577E+03,+2.150800E+04,
-4.566000E+01,-7.988602E-08,+9.910000E+37,+2.483635E+03,+2.150800E+04,
-4.565000E+01,-7.786554E-08,+9.910000E+37,+2.484692E+03,+2.150800E+04,
-4.564000E+01,-7.685535E-08,+9.910000E+37,+2.485749E+03,+2.150800E+04,
-4.563000E+01,-7.432980E-08,+9.910000E+37,+2.486807E+03,+2.150800E+04,
-4.562000E+01,-7.685539E-08,+9.910000E+37,+2.487868E+03,+2.150800E+04,
-4.561000E+01,-7.786566E-08,+9.910000E+37,+2.488927E+03,+2.150800E+04,
-4.560000E+01,-7.483494E-08,+9.910000E+37,+2.490005E+03,+2.150800E+04,
-4.559000E+01,-7.079407E-08,+9.910000E+37,+2.491063E+03,+2.150800E+04,
-4.558000E+01,-7.534000E-08,+9.910000E+37,+2.492122E+03,+2.150800E+04,
-4.557000E+01,-7.331968E-08,+9.910000E+37,+2.493180E+03,+2.150800E+04,
-4.556000E+01,-7.382471E-08,+9.910000E+37,+2.494239E+03,+2.150800E+04,
-4.555000E+01,-7.685538E-08,+9.910000E+37,+2.495301E+03,+2.150800E+04,
-4.554000E+01,-7.230940E-08,+9.910000E+37,+2.496359E+03,+2.150800E+04,
-4.553000E+01,-7.230940E-08,+9.910000E+37,+2.497416E+03,+2.150800E+04,
-4.552000E+01,-7.483496E-08,+9.910000E+37,+2.498474E+03,+2.150800E+04,
-4.551000E+01,-7.432984E-08,+9.910000E+37,+2.499535E+03,+2.150800E+04,
-4.550000E+01,-7.230939E-08,+9.910000E+37,+2.500594E+03,+2.150800E+04,
-4.549000E+01,-7.129920E-08,+9.910000E+37,+2.501668E+03,+2.150800E+04,
-4.548000E+01,-7.230936E-08,+9.910000E+37,+2.502724E+03,+2.150800E+04,
-4.547000E+01,-6.927878E-08,+9.910000E+37,+2.503782E+03,+2.150800E+04,
-4.546000E+01,-7.382469E-08,+9.910000E+37,+2.504839E+03,+2.150800E+04,
-4.545000E+01,-7.635023E-08,+9.910000E+37,+2.505913E+03,+2.150800E+04,
-4.544000E+01,-7.180427E-08,+9.910000E+37,+2.506969E+03,+2.150800E+04,
-4.543000E+01,-7.028898E-08,+9.910000E+37,+2.508027E+03,+2.150800E+04,
-4.542000E+01,-7.028894E-08,+9.91000


























































































































































































































































































































































































































































current through plasma (-mA) <tab> voltage across plasma (-V) <tab> time (sec)
3.431047	445.882807	0.002000
3.424874	446.363572	0.102000
3.435312	445.559204	0.202000
3.432637	445.778290	0.302000
3.421612	446.661662	0.402000
3.428291	446.171957	0.502000
3.437202	445.405016	0.602000
3.428133	446.098733	0.702000
3.422345	446.574450	0.802000
3.432687	445.826557	0.902000
3.434034	445.701734	1.002000
3.424212	446.389654	1.102000
3.427153	446.226008	1.202000
3.435608	445.549527	1.302000
3.428872	446.062949	1.402000
3.422806	446.486221	1.502000
3.432175	445.812261	1.602000
3.434678	445.661460	1.702000
3.423786	446.447398	1.802000
3.425164	446.360866	1.902000
3.436450	445.458084	2.002000
3.431190	445.824059	2.102000
3.421460	446.635184	2.202000
3.429117	446.063514	2.302000
3.435413	445.566283	2.402000
3.426187	446.231875	2.502000
3.424344	446.368700	2.602000
3.434318	445.650837	2.702000
3.431315	445.868479	2.802000
3.422368	446.534986	2.903000
3.429601	445.993555	3.002000
3.436220	445.521212	3.102000
3.426321	446.230548	3.202000
3.423280	446.461407	3.302000
3.434158	445.655396	3.402000
3.433938	445.622813	3.502000
3.422629	446.536818	3.602000
3.426630	446.254025	3.702000
3.436385	445.472233	3.802000
3.429674	445.965219	3.902000
3.423356	446.437187	4.003000
3.432292	445.804260	4.103000
3.433745	445.655712	4.202000
3.424023	446.369164	4.302000
3.427059	446.198739	4.403000
3.436865	445.450364	4.502000
3.429966	445.965793	4.603000
3.422116	446.528606	4.703000
3.431750	445.820632	4.802000
3.436253	445.438654	4.902000
3.425443	446.234647	5.002000
3.424608	446.354765	5.102000
3.435742	445.523855	5.202000
3.432874	445.695435	5.302000
3.423486	446.416119	5.402000
3.429624	445.878821	5.502000
3.435359	445.502400	5.602000
3.426471	446.201352	5.702000
3.425195	446.296109	5.802000
3.435459	445.515769	5.902000
3.432661	445.714831	6.002000
3.422238	446.511456	6.102000
3.428673	445.995810	6.202000
3.436992	445.366181	6.302000
3.427612	446.079775	6.402000
3.423493	446.424659	6.502000
3.433772	445.653315	6.602000
3.433463	445.615528	6.702000
3.423488	446.363081	6.802000
3.428120	446.037731	6.902000
3.435563	445.508218	7.002000
3.427854	446.089104	7.102000
3.423807	446.377341	7.202000
3.433950	445.599338	7.302000
3.433675	445.591273	7.402000
3.422055	446.468259	7.502000
3.426554	446.158325	7.602000
3.436605	445.387073	7.702000
3.429643	445.877832	7.802000
3.422017	446.484992	7.902000
3.431200	445.819200	8.002000
3.434359	445.536399	8.102000
3.424638	446.244172	8.202000
3.425122	446.222679	8.302000
3.435006	445.467686	8.402000
3.429765	445.850865	8.502000
3.422355	446.431240	8.602000
3.430234	445.830295	8.702000
3.434872	445.437705	8.802000
3.424015	446.283792	8.902000
3.423062	446.353601	9.002000
3.434951	445.464393	9.102000
3.432302	445.639353	9.202000
3.421746	446.474237	9.303000
3.427373	446.046100	9.404000
3.435076	445.451134	9.502000
3.427330	445.969460	9.602000
3.423005	446.299826	9.702000
3.432836	445.587522	9.802000
3.432490	445.641621	9.902000
3.422383	446.412004	10.002000
3.427170	446.036079	10.102000
3.435564	445.399985	10.202000
3.427889	445.932105	10.302000
3.421759	446.418043	10.402000
3.432348	445.651003	10.502000
3.434662	445.446086	10.602000
3.423317	446.320014	10.702000
3.424738	446.209252	10.802000
3.434600	445.467403	10.902000
3.430216	445.817021	11.002000
3.422831	446.323794	11.102000
3.430971	445.731254	11.202000
3.433982	445.494252	11.302000
3.423929	446.271063	11.402000
3.424979	446.209873	11.502000
3.435726	445.358306	11.602000
3.430798	445.704960	11.702000
3.421598	446.419653	11.802000
3.429774	445.828765	11.902000
3.435954	445.329109	12.002000
3.425669	446.103730	12.102000
3.423262	446.288370	12.202000
3.434390	445.421119	12.302000
3.432369	445.574355	12.402000
3.423335	446.269479	12.502000
3.428849	445.864304	12.602000
3.434943	445.417007	12.702000
3.426076	446.085933	12.802000
3.423890	446.205251	12.902000
3.434637	445.393930	13.002000
3.433406	445.474823	13.102000
3.422249	446.329824	13.202000
3.426874	446.034355	13.302000
3.436212	445.334797	13.402000
3.428362	445.873596	13.502000
3.422389	446.301072	13.602000
3.432076	445.590244	13.702000
3.434210	445.434387	13.802000
3.423797	446.197620	13.903000
3.425887	446.067710	14.002000
3.434839	445.387153	14.102000
3.428744	445.841282	14.202000
3.422360	446.342739	14.302000
3.432155	445.596026	14.402000
3.434974	445.382940	14.502000
3.423405	446.203772	14.602000
3.423694	446.237439	14.702000
3.435037	445.409923	14.802000
3.431338	445.654697	14.902000
3.421980	446.282738	15.002000
3.428822	445.816390	15.102000
3.434836	445.360939	15.202000
3.425438	446.061438	15.302000
3.423148	446.269606	15.402000
3.433330	445.496458	15.502000
3.431275	445.617726	15.602000
3.421937	446.304098	15.703000
3.427788	445.912497	15.802000
3.435278	445.319436	15.902000
3.425400	446.015086	16.003000
3.421235	446.371795	16.102000
3.432590	445.538057	16.203000
3.433107	445.505187	16.302000
3.422144	446.220283	16.402000
3.425138	446.032729	16.502000
3.434137	445.365318	16.602000
3.427495	445.867084	16.702000
3.421707	446.300875	16.802000
3.431052	445.626958	16.902000
3.432920	445.431904	17.002000
3.422268	446.229174	17.102000
3.424393	446.115403	17.202000
3.434592	445.298763	17.302000
3.428071	445.770552	17.403000
3.420275	446.357642	17.502000
3.429529	445.711504	17.602000
3.434482	445.327438	17.702000
3.423450	446.083362	17.802000
3.422472	446.195979	17.902000
3.432856	445.385722	18.002000
3.429703	445.665846	18.102000
3.421509	446.267223	18.202000
3.428445	445.757519	18.302000
3.433716	445.347621	18.402000
3.423838	446.042689	18.502000
3.422055	446.188608	18.602000
3.433034	445.402442	18.702000
3.431031	445.518108	18.802000
3.420882	446.265952	18.902000
3.426631	445.874072	19.002000
3.434842	445.244139	19.102000
3.426042	445.841811	19.202000
3.420667	446.240799	19.302000
3.430912	445.508621	19.402000
3.432499	445.394894	19.502000
3.422335	446.158463	19.602000
3.425639	445.927699	19.702000
3.434131	445.231278	19.802000
3.426570	445.791682	19.902000
3.421163	446.188193	20.002000
3.431278	445.442950	20.102000
3.433413	445.303347	20.202000
3.421891	446.143225	20.302000
3.423376	446.043984	20.402000
3.433973	445.245635	20.502000
3.428958	445.617094	20.602000
3.420378	446.231688	20.702000
3.428377	445.603890	20.802000
3.433606	445.230320	20.902000
3.424139	445.947760	21.002000
3.422573	446.081706	21.102000
3.432646	445.337941	21.202000
3.429145	445.548438	21.302000
3.420599	446.212545	21.403000
3.427796	445.691119	21.502000
3.434448	445.196172	21.602000
3.424170	445.957281	21.702000
3.420697	446.188547	21.802000
3.432128	445.368418	21.902000
3.431955	445.317701	22.002000
3.421091	446.143886	22.102000
3.425063	445.897139	22.202000
3.433774	445.220944	22.302000
3.426286	445.774901	22.402000
3.420603	446.223967	22.502000
3.429959	445.527899	22.602000
3.431800	445.318145	22.702000
3.421693	446.066244	22.802000
3.424395	445.915600	22.902000
3.433649	445.235968	23.002000
3.426838	445.737235	23.102000
3.418930	446.299638	23.202000
3.428993	445.541618	23.302000
3.433629	445.206186	23.402000
3.422824	446.004679	23.502000
3.422018	446.087582	23.602000
3.432080	445.336885	23.702000
3.428456	445.601766	23.802000
3.419948	446.271697	23.902000
3.427185	445.699539	24.002000
3.432842	445.246455	24.102000
3.423160	445.934674	24.202000
3.421476	446.122665	24.302000
3.431912	445.387577	24.402000
3.429223	445.537366	24.502000
3.419052	446.282928	24.602000
3.425835	445.763184	24.702000
3.434294	445.125753	24.802000
3.425100	445.835264	24.903000
3.419708	446.247149	25.002000
3.429618	445.451586	25.102000
3.430621	445.362977	25.202000
3.420862	446.088132	25.302000
3.424233	445.884812	25.402000
3.432608	445.223408	25.502000
3.425441	445.728492	25.602000
3.419579	446.162778	25.702000
3.429296	445.498754	25.802000
3.431622	445.311142	25.902000
3.420691	446.109787	26.002000
3.422472	445.962843	26.102000
3.433354	445.102209	26.202000
3.427415	445.599965	26.302000
3.418619	446.258214	26.402000
3.427590	445.617255	26.502000
3.432308	445.214305	26.602000
3.422546	445.966459	26.702000
3.422399	445.974980	26.802000
3.432106	445.242736	26.902000
3.427179	445.613762	27.002000
3.419199	446.189373	27.102000
3.427692	445.519135	27.202000
3.433438	445.140533	27.302000
3.422776	445.913808	27.402000
3.420566	446.056963	27.502000
3.432000	445.198575	27.602000
3.429759	445.363621	27.702000
3.419296	446.164200	27.804000
3.425101	445.739624	27.902000
3.433141	445.123737	28.002000
3.424842	445.707665	28.102000
3.420687	446.027510	28.202000
3.430206	445.352392	28.302000
3.429733	445.355162	28.403000
3.419669	446.074400	28.502000
3.424845	445.706895	28.602000
3.433852	445.030099	28.702000
3.424637	445.723215	28.802000
3.418631	446.167994	28.902000
3.429286	445.375038	29.002000
3.431540	445.192050	29.102000
3.420827	446.025571	29.202000
3.422556	445.903857	29.302000
3.432469	445.142507	29.402000
3.426963	445.514965	29.502000
3.419423	446.080815	29.602000
3.427623	445.503332	29.702000
3.431017	445.234255	29.802000
3.420838	445.978023	29.902000
3.422177	445.889043	30.002000
3.432654	445.091907	30.102000
3.427133	445.517053	30.202000
3.417837	446.194417	30.302000
3.425756	445.581427	30.402000
3.432345	445.060080	30.502000
3.422733	445.781923	30.602000
3.420079	446.026713	30.702000
3.430086	445.287747	30.802000
3.428591	445.354228	30.902000
3.418934	446.054732	31.002000
3.425038	445.641588	31.102000
3.431744	445.140944	31.202000
3.422545	445.831608	31.302000
3.419644	446.025382	31.402000
3.430408	445.200975	31.502000
3.428859	445.356562	31.602000
3.418174	446.136252	31.702000
3.422993	445.794660	31.802000
3.432377	445.081508	31.902000
3.424879	445.607252	32.002000
3.418366	446.167531	32.102000
3.427883	445.407339	32.202000
3.429442	445.252857	32.302000
3.419626	445.968399	32.402000
3.422728	445.793729	32.502000
3.431420	445.165430	32.602000
3.424741	445.642834	32.702000
3.418269	446.127788	32.802000
3.427758	445.393930	32.902000
3.430749	445.148993	33.002000
3.419363	446.007823	33.102000
3.420854	445.904677	33.202000
3.431645	445.080464	33.302000
3.426961	445.426262	33.402000
3.418011	446.126808	33.502000
3.425484	445.576836	33.602000
3.430454	445.120076	33.705000
3.421016	445.802480	33.802000
3.421148	445.857155	33.902000
3.430933	445.133992	34.002000
3.426531	445.467662	34.102000
3.417711	446.124328	34.202000
3.426001	445.470617	34.302000
3.431827	445.025677	34.402000
3.421333	445.824166	34.502000
3.419410	445.983169	34.602000
3.430406	445.150220	34.702000
3.428490	445.291883	34.802000
3.418553	446.013320	34.902000
3.424026	445.638769	35.002000
3.431198	445.052121	35.102000
3.423003	445.628460	35.202000
3.420068	445.904788	35.303000
3.429958	445.160245	35.402000
3.427908	445.338436	35.502000
3.417808	446.042757	35.602000
3.423675	445.595350	35.702000
3.432666	444.906962	35.802000
3.423714	445.581952	35.902000
3.417874	446.036315	36.002000
3.428136	445.258767	36.102000
3.429657	445.116183	36.202000
3.419107	445.892407	36.302000
3.421846	445.716105	36.402000
3.430704	445.039777	36.502000
3.423995	445.503467	36.602000
3.418173	445.908158	36.702000
3.427415	445.267893	36.802000
3.428760	445.164757	36.902000
3.417990	445.985870	37.007000
3.421337	445.686312	37.102000
3.431624	444.882315	37.202000
3.425198	445.384229	37.302000
3.416532	446.060302	37.403000
3.425351	445.412080	37.503000
3.429770	445.063349	37.602000
3.419976	445.758147	37.702000
3.419650	445.779678	37.802000
3.429600	445.091472	37.902000
3.424805	445.386309	38.002000
3.416757	445.995058	38.102000
3.425007	445.384350	38.202000
3.429518	445.052417	38.302000
3.418911	445.854731	38.402000
3.418670	445.836073	38.502000
3.430075	444.977503	38.602000
3.425937	445.287152	38.702000
3.416005	446.059434	38.802000
3.422734	445.599599	38.902000
3.429743	445.006311	39.002000
3.420741	445.613248	39.102000
3.418396	445.836754	39.202000
3.428049	445.137275	39.302000
3.425246	445.356130	39.402000
3.416422	445.980223	39.502000
3.423208	445.489148	39.602000
3.429970	444.991165	39.703000
3.420111	445.715417	39.802000
3.416602	445.982825	39.902000
3.427966	445.098239	40.002000
3.427379	445.107703	40.102000
3.415963	446.004996	40.202000
3.420468	445.695743	40.302000
3.429343	444.975991	40.402000
3.422154	445.476340	40.502000
3.417149	445.856787	40.602000
3.426227	445.195647	40.702000
3.426592	445.171754	40.802000
3.416465	445.929636	40.902000
3.420651	445.602070	41.002000
3.430213	444.880690	41.102000
3.422388	445.457539	41.202000
3.415386	446.004745	41.302000
3.425448	445.216393	41.402000
3.428477	444.972809	41.502000
3.417421	445.834173	41.603000
3.418484	445.738596	41.702000
3.428734	444.978406	41.802000
3.424035	445.272374	41.902000
3.416468	445.833946	42.002000
3.424172	445.270883	42.102000
3.427768	445.026762	42.202000
3.417964	445.744770	42.302000
3.418796	445.689570	42.402000
3.429694	444.854091	42.502000
3.424430	445.227783	42.602000
3.414641	445.975372	42.702000
3.422372	445.375185	42.802000
3.429300	444.841557	42.902000
3.419449	445.602898	43.002000
3.416996	445.796860	43.102000
3.427276	445.025741	43.202000
3.425622	445.097844	43.302000
3.415754	445.798540	43.402000
3.421563	445.420978	43.502000
3.428481	444.904822	43.602000
3.419368	445.600344	43.703000
3.416515	445.793358	43.802000
3.427365	444.968121	43.902000
3.426362	445.024755	44.002000
3.414918	445.898747	44.102000
3.419516	445.564775	44.202000
3.429402	444.814089	44.302000
3.422026	445.348236	44.402000
3.415238	445.908232	44.502000
3.424533	445.202062	44.602000
3.426566	445.013378	44.702000
3.416629	445.708902	44.802000
3.418744	445.584990	44.902000
3.428133	444.908889	45.002000
3.421807	445.394114	45.104000
3.414574	445.907899	45.202000
3.423967	445.197485	45.302000
3.427487	444.890206	45.402000
3.416392	445.711128	45.502000
3.416186	445.762072	45.602000
3.427698	444.924138	45.702000
3.424210	445.107490	45.802000
3.414513	445.831395	45.903000
3.420836	445.414748	46.002000
3.426964	444.948631	46.102000
3.418004	445.561807	46.207000
3.416635	445.714404	46.302000
3.426607	444.971857	46.402000
3.423657	445.250435	46.502000
3.414104	445.892732	46.602000
3.420451	445.402490	46.702000
3.428030	444.825914	46.802000
3.418864	445.464894	46.902000
3.414232	445.867142	47.002000
3.425239	445.078458	47.102000
3.426001	444.985028	47.202000
3.415045	445.750725	47.302000
3.417809	445.555251	47.403000
3.426480	444.888363	47.503000
3.420045	445.359893	47.602000
3.414807	445.716611	47.702000
3.423766	445.110353	47.802000
3.425123	445.016183	47.902000
3.414464	445.784132	48.002000
3.416942	445.588063	48.102000
3.427529	444.785244	48.207000
3.421317	445.250243	48.302000
3.413290	445.871866	48.402000
3.421790	445.279994	48.502000
3.427075	444.848358	48.602000
3.416963	445.596657	48.702000
3.415419	445.717637	48.802000
3.426053	444.918587	48.902000
3.423941	445.041473	49.002000
3.415183	445.718942	49.102000
3.421313	445.291640	49.202000
3.427038	444.876522	49.303000
3.416957	445.594853	49.402000
3.415105	445.727992	49.502000
3.426408	444.848729	49.602000
3.424820	444.916792	49.702000
3.414016	445.794154	49.803000
3.418769	445.469656	49.902000
3.427150	444.798320	50.002000
3.419301	445.335037	50.102000
3.414348	445.684192	50.202000
3.423988	444.997738	50.302000
3.424742	444.941280	50.402000
3.414856	445.650054	50.502000
3.418250	445.443011	50.602000
3.426720	444.784073	50.702000
3.418960	445.349135	50.802000
3.413654	445.747424	50.902000
3.424201	444.905663	51.002000
3.425928	444.757738	51.102000
3.414051	445.718125	51.202000
3.415699	445.615031	51.302000
3.426079	444.816449	51.402000
3.421305	445.088154	51.502000
3.413500	445.672013	51.602000
3.421315	445.106872	51.702000
3.424836	444.853354	51.802000
3.414892	445.608341	51.902000
3.415849	445.516188	52.002000
3.425621	444.764437	52.102000
3.420337	445.159767	52.202000
3.412329	445.785666	52.302000
3.421299	445.100330	52.402000
3.426334	444.697220	52.502000
3.415183	445.564100	52.602000
3.413537	445.710604	52.702000
3.424756	444.864839	52.802000
3.422536	445.007510	52.902000
3.413521	445.657628	53.002000
3.419330	445.280341	53.102000
3.425021	444.857857	53.202000
3.416006	445.515139	53.302000
3.414386	445.617165	53.402000
3.424688	444.847871	53.503000
3.422271	445.016933	53.602000
3.412200	445.767967	53.702000
3.418247	445.321617	53.802000
3.426178	444.737268	53.903000
3.416700	445.421594	54.002000
3.412433	445.791925	54.102000
3.423145	444.988292	54.202000
3.423717	444.902188	54.302000
3.413583	445.646127	54.402000
3.417314	445.398734	54.503000
3.424671	444.834322	54.602000
3.417237	445.419826	54.702000
3.412961	445.706123	54.802000
3.423179	444.916136	54.902000
3.423728	444.851725	55.002000
3.412652	445.685285	55.102000
3.415649	445.497854	55.203000
3.425448	444.748530	55.302000
3.418838	445.212635	55.403000
3.411680	445.781724	55.502000
3.421208	445.055871	55.604000
3.424221	444.807405	55.702000
3.414418	445.529869	55.802000
3.415180	445.474949	55.902000
3.424396	444.805735	56.002000
3.419008	445.198117	56.102000
3.412287	445.708787	56.202000
3.421671	444.977958	56.302000
3.424777	444.741100	56.402000
3.413609	445.591064	56.502000
3.413729	445.602797	56.602000
3.425300	444.733944	56.702000
3.421064	445.007642	56.802000
3.411960	445.672863	56.902000
3.419389	445.148134	57.002000
3.424785	444.746038	57.102000
3.415783	445.386300	57.202000
3.413852	445.508910	57.302000
3.423657	444.805917	57.402000
3.420938	444.996825	57.502000
3.411934	445.650431	57.602000
3.419261	445.111005	57.702000
3.425267	444.612004	57.802000
3.414953	445.384187	57.902000
3.411927	445.647345	58.002000
3.423398	444.804716	58.102000
3.422959	444.780689	58.202000
3.412518	445.557724	58.303000
3.416406	445.309213	58.402000
3.424562	444.694144	58.502000
3.417202	445.211386	58.602000
3.412507	445.574243	58.702000
3.422171	444.857452	58.802000
3.422663	444.838621	58.902000
3.412565	445.583954	59.002000
3.416414	445.287881	59.103000
3.425269	444.607303	59.202000
3.417575	445.186643	59.302000
3.411075	445.713183	59.402000
3.421502	444.931221	59.502000
3.425039	444.610964	59.602000
3.413699	445.444904	59.703000
3.414221	445.420811	59.802000
3.424085	444.698193	59.902000
3.419306	445.044186	60.002000
3.412094	445.598746	60.102000
3.420698	444.959372	60.202000
3.423351	444.742812	60.302000
3.412901	445.510794	60.402000
3.413631	445.495421	60.502000
3.424244	444.659471	60.602000
3.419549	444.996745	60.702000
3.410392	445.694477	60.802000
3.418539	445.147902	60.902000
3.424655	444.644761	61.002000
3.414586	445.366299	61.102000
3.411856	445.566255	61.202000
3.421936	444.815739	61.302000
3.420335	444.954999	61.402000
3.411741	445.582882	61.502000
3.417538	445.184719	61.602000
3.423772	444.675462	61.702000
3.414657	445.338221	61.802000
3.411359	445.592594	61.902000
3.422408	444.770269	62.002000
3.421986	444.798990	62.102000
3.411274	445.583090	62.202000
3.414857	445.356964	62.302000
3.424211	444.669863	62.402000
3.417352	445.136149	62.502000
3.410864	445.585331	62.602000
3.420322	444.901725	62.702000
3.422565	444.760297	62.802000
3.412837	445.504359	62.902000
3.415257	445.320532	63.002000
3.424083	444.623378	63.102000
3.416832	445.161096	63.202000
3.410980	445.607028	63.302000
3.420839	444.880535	63.402000
3.424191	444.631889	63.502000
3.412637	445.443791	63.602000
3.413370	445.452035	63.702000
3.423691	444.650138	63.802000
3.419249	444.937042	63.902000
3.410692	445.555305	64.002000
3.418554	445.005785	64.102000
3.423531	444.652974	64.202000
3.414208	445.335632	64.302000
3.412916	445.448670	64.402000
3.422913	444.647489	64.502000
3.419270	444.914344	64.602000
3.410534	445.573366	64.702000
3.418213	445.021869	64.802000
3.424890	444.499349	64.902000
3.414705	445.247021	65.005000
3.410880	445.549103	65.102000
3.421730	444.763915	65.202000
3.421603	444.710484	65.302000
3.411482	445.459013	65.402000
3.415580	445.144888	65.502000
3.423559	444.589237	65.602000
3.416031	445.155720	65.702000
3.411285	445.502525	65.802000
3.420949	444.767335	65.902000
3.421752	444.717054	66.002000
3.411193	445.488181	66.102000
3.414981	445.210507	66.202000
3.424188	444.504164	66.302000
3.416597	445.027129	66.402000
3.409226	445.598940	66.502000
3.419120	444.858716	66.602000
3.422903	444.541764	66.702000
3.412347	445.318858	66.802000
3.412895	445.287698	66.902000
3.421990	444.624371	67.002000
3.416545	445.047854	67.102000
3.409539	445.561835	67.202000
3.418563	444.852367	67.302000
3.422002	444.553375	67.402000
3.410986	445.418909	67.503000
3.411486	445.415541	67.602000
3.422479	444.569988	67.702000
3.418066	444.911960	67.802000
3.408668	445.582182	67.902000
3.416505	444.998512	68.002000
3.422835	444.509570	68.102000
3.413296	445.198418	68.202000
3.410303	445.437564	68.302000
3.420329	444.709212	68.402000
3.418246	444.876963	68.502000
3.409512	445.504741	68.602000
3.415740	445.015525	68.702000
3.422529	444.484873	68.802000
3.412688	445.201538	68.902000
3.408848	445.546655	69.002000
3.420315	444.721845	69.102000
3.420355	444.682532	69.202000
3.409543	445.454803	69.302000
3.413795	445.179446	69.408000
3.422645	444.521362	69.502000
3.414937	445.068974	69.605000
3.408977	445.521461	69.702000
3.418127	444.817902	69.802000
3.419975	444.707461	69.902000
3.410247	445.407135	70.002000
3.413044	445.185852	70.102000
3.422113	444.481405	70.202000
3.415236	445.000965	70.302000
3.408296	445.534909	70.410000
3.418108	444.817900	70.502000
3.421824	444.524006	70.602000
3.411119	445.283843	70.702000
3.410844	445.292473	70.802000
3.421199	444.555066	70.902000
3.416981	444.852978	71.002000
3.408771	445.482511	71.102000
3.416283	444.931739	71.202000
3.421538	444.515459	71.302000
3.411837	445.264178	71.402000
3.411155	445.322406	71.502000
3.421342	444.523204	71.602000
3.417408	444.777244	71.702000
3.408259	445.506450	71.802000
3.415705	444.975089	71.902000
3.423477	444.336205	72.002000
3.413171	445.119314	72.102000
3.409330	445.406647	72.202000
3.419797	444.630394	72.303000
3.418375	444.756514	72.402000
3.409286	445.413532	72.502000
3.415013	444.957394	72.602000
3.421730	444.434974	72.702000
3.412713	445.106441	72.802000
3.409130	445.396903	72.902000
3.419563	444.609559	73.002000
3.419290	444.581687	73.102000
3.408468	445.434971	73.202000
3.413207	445.102942	73.302000
3.422242	444.412042	73.402000
3.414455	444.962113	73.502000
3.408144	445.428752	73.602000
3.417753	444.715523	73.702000
3.419829	444.578765	73.802000
3.410197	445.317544	73.902000
3.412932	445.098419	74.002000
3.421431	444.450906	74.102000
3.414138	444.987904	74.203000
3.407971	445.464045	74.302000
3.417979	444.724132	74.402000
3.420335	444.538569	74.503000
3.409381	445.342514	74.602000
3.411324	445.243511	74.702000
3.421447	444.493266	74.802000
3.416011	444.856255	74.902000
3.407946	445.446448	75.002000
3.416085	444.858236	75.102000
3.420099	444.562380	75.202000
3.410928	445.273539	75.302000
3.411457	445.237607	75.402000
3.421237	444.464794	75.502000
3.415729	444.860762	75.602000
3.407767	445.484249	75.702000
3.416900	444.825645	75.803000
3.421757	444.480961	75.902000
3.411169	445.240824	76.002000
3.409901	445.361191	76.102000
3.420382	444.580671	76.202000
3.417061	444.778168	76.302000
3.408455	445.428769	76.402000
3.415050	444.954824	76.502000
3.421043	444.509026	76.602000
3.411799	445.218210	76.702000
3.410486	445.306304	76.802000
3.420107	444.565913	76.902000
3.417493	444.741368	77.002000
3.407740	445.461101	77.102000
3.414974	444.979011	77.202000
3.422450	444.421538	77.302000
3.413040	445.073460	77.402000
3.408565	445.407472	77.502000
3.418724	444.660817	77.602000
3.419080	444.651288	77.702000
3.409555	445.345189	77.802000
3.413663	445.054492	77.902000
3.421473	444.485696	78.002000
3.413524	445.064668	78.102000
3.409194	445.408460	78.202000
3.418999	444.659034	78.302000
3.419824	444.544123	78.402000
3.408934	445.383680	78.502000
3.412830	445.136145	78.602000
3.422502	444.416362	78.702000
3.415038	444.937515	78.805000
3.408287	445.437727	78.902000
3.417257	444.773955	79.002000
3.420780	444.507642	79.102000
3.411078	445.224578	79.202000
3.412503	445.105665	79.302000
3.421266	444.488093	79.402000
3.415268	444.922221	79.502000
3.408324	445.465326	79.602000
3.417627	444.735626	79.702000
3.421433	444.418656	79.802000
3.410544	445.240549	79.902000
3.411054	445.224958	80.002000
3.421347	444.493911	80.102000
3.417191	444.759877	80.202000
3.408423	445.374817	80.302000
3.416088	444.808692	80.402000
3.421319	444.450729	80.502000
3.411264	445.225625	80.602000
3.411387	445.195141	80.702000
3.420901	444.497856	80.802000
3.415771	444.852509	80.902000
3.407981	445.444096	81.002000
3.416604	444.801417	81.102000
3.421788	444.381224	81.202000
3.411029	445.180543	81.302000
3.409439	445.333306	81.402000
3.419912	444.581936	81.502000
3.417702	444.698470	81.602000
3.408457	445.356591	81.702000
3.414505	444.888373	81.802000
3.421194	444.408410	81.902000
3.412285	445.101751	82.002000
3.409815	445.295092	82.102000
3.419514	444.571723	82.203000
3.417454	444.676805	82.302000
3.407847	445.390568	82.402000
3.413912	444.983210	82.502000
3.421810	444.333450	82.602000
3.412402	445.043122	82.702000
3.407556	445.418732	82.802000
3.417847	444.658492	82.902000
3.419001	444.542844	83.002000
3.408819	445.297428	83.103000
3.412402	445.009513	83.202000
3.420423	444.445793	83.302000
3.413003	445.007222	83.402000
3.408106	445.389632	83.504000
3.417911	444.611441	83.602000
3.418601	444.530381	83.703000
3.407999	445.344887	83.802000
3.411586	445.067604	83.902000
3.421557	444.336342	84.002000
3.414552	444.833087	84.102000
3.406830	445.427468	84.202000
3.416018	444.743245	84.302000
3.419827	444.459935	84.402000
3.410287	445.110394	84.502000
3.410758	445.079338	84.602000
3.419796	444.414043	84.702000
3.414212	444.838990	84.802000
3.407461	445.387610	84.902000
3.416750	444.662488	85.002000
3.420016	444.378304	85.102000
3.409229	445.148897	85.202000
3.409554	445.180503	85.302000
3.420533	444.367734	85.403000
3.415635	444.669742	85.502000
3.406521	445.357910	85.603000
3.414524	444.773223	85.702000
3.420107	444.337717	85.802000
3.410701	444.986826	85.902000
3.409297	445.108667	86.002000
3.418603	444.415976	86.102000
3.414694	444.720950	86.202000
3.406697	445.325211	86.302000
3.414569	444.702694	86.402000
3.420178	444.234592	86.502000
3.409533	445.018215	86.602000
3.407243	445.213689	86.702000
3.418175	444.424273	86.802000
3.416170	444.516617	86.902000
3.406176	445.256778	87.002000
3.411988	444.822661	87.102000
3.419323	444.295677	87.202000
3.410861	444.889043	87.302000
3.407053	445.184998	87.402000
3.416539	444.481017	87.502000
3.416130	444.518493	87.602000
3.406182	445.247336	87.702000
3.411447	444.844874	87.802000
3.419561	444.190266	87.902000
3.410680	444.821683	88.002000
3.404641	445.316575	88.102000
3.414797	444.570414	88.202000
3.417621	444.322267	88.302000
3.406834	445.096296	88.402000
3.407983	444.997817	88.502000
3.417529	444.301166	88.602000
3.412206	444.677842	88.702000
3.404540	445.249092	88.802000
3.412750	444.648481	88.902000
3.416385	444.340136	89.003000
3.406486	445.047618	89.102000
3.406953	445.065032	89.202000
3.417019	444.261309	89.302000
3.412039	444.607542	89.402000
3.402725	445.288027	89.503000
3.410863	444.694428	89.602000
3.417250	444.214475	89.702000
3.407189	444.944090	89.802000
3.404561	445.105599	89.902000
3.414541	444.377562	90.002000
3.412257	444.533778	90.102000
3.403361	445.176618	90.202000
3.409334	444.738023	90.302000
3.415990	444.230704	90.402000
3.406701	444.902927	90.502000
3.403834	445.123261	90.602000
3.414192	444.321308	90.703000
3.412655	444.399621	90.802000
3.401981	445.180384	90.902000
3.407481	444.820501	91.002000
3.416348	444.146353	91.102000
3.407598	444.756652	91.202000
3.402032	445.113353	91.302000
3.411300	444.425088	91.402000
3.412315	444.348012	91.502000
3.402811	445.005173	91.602000
3.405925	444.788007	91.702000
3.414113	444.145272	91.802000
3.406490	444.676670	91.902000
3.400631	445.108715	92.002000
3.410353	444.363962	92.102000
3.412400	444.185136	92.202000
3.401280	444.991560	92.302000
3.403536	444.833669	92.402000
3.413506	444.082941	92.502000
3.407551	444.489864	92.602000
3.399766	445.022898	92.702000
3.407616	444.449100	92.802000
3.411483	444.128840	92.902000
3.401641	444.860595	93.002000
3.402464	444.784652	93.102000
3.411421	444.059466	93.202000
3.405756	444.395603	93.302000
3.396810	445.049795	93.402000
3.405240	444.362164	93.502000
3.409706	443.981043	93.602000
3.398523	444.704958	93.702000
3.397009	444.795643	93.802000
3.407292	443.957836	93.902000
3.403279	444.206523	94.002000
3.393538	444.850487	94.102000
3.400565	444.322110	94.202000
3.406080	443.912167	94.302000
3.396666	444.565728	94.403000
3.395029	444.677852	94.502000
3.404184	443.917895	94.603000
3.399337	444.106504	94.702000
3.388148	444.767957	94.802000
3.393053	444.151551	94.902000
3.393708	443.434781	95.002000
3.375453	443.943685	95.102000
3.366193	443.997081	95.202000
3.374507	443.146098	95.302000
3.372934	443.256847	95.402000
3.364919	443.960518	95.502000
3.371855	443.589893	95.602000
3.379523	443.152970	95.702000
3.371654	443.822878	95.802000
3.368838	444.074756	95.902000
3.378628	443.294341	96.002000
3.377130	443.328150	96.103000
3.365784	444.086043	96.203000
3.370014	443.691705	96.302000
3.377580	442.994266	96.402000
3.368561	443.557473	96.502000
3.360935	443.987336	96.602000
3.369446	443.231684	96.703000
3.371484	443.018198	96.802000
3.361884	443.784456	96.902000
3.365666	443.658698	97.002000
3.376307	443.066767	97.102000
3.372578	443.568660	97.202000
3.367923	444.143053	97.302000
3.378271	443.568506	97.402000
3.382697	443.287757	97.502000
3.373424	444.058613	97.602000
3.374700	444.069878	97.702000
3.385787	443.331032	97.802000
3.381914	443.658588	97.902000
3.372997	444.307046	98.002000
3.380325	443.787381	98.102000
3.386600	443.307717	98.202000
3.377813	443.988179	98.302000
3.376157	444.148335	98.402000
3.385553	443.462616	98.502000
3.382260	443.725424	98.602000
3.373654	444.336141	98.702000
3.380644	443.814959	98.802000
3.387366	443.283207	98.902000
3.377971	443.955230	99.002000
3.374926	444.195583	99.102000
3.385828	443.430359	99.202000
3.385214	443.495047	99.302000
3.375148	444.197722	99.402000
3.380101	443.833250	99.502000
3.388294	443.234229	99.602000
3.380456	443.798932	99.702000
3.376248	444.183483	99.802000
3.385911	443.463061	99.902000
3.385771	443.468556	100.002000
3.376273	444.161291	100.102000
3.381336	443.821103	100.202000
3.389625	443.164707	100.302000
3.381256	443.748760	100.402000
3.375314	444.224738	100.502000
3.384957	443.480127	100.602000
3.386405	443.317469	100.702000
3.375889	444.045141	100.802000
3.378486	443.843817	100.902000
3.387571	443.169826	101.002000
3.381005	443.674674	101.102000
3.374701	444.182490	101.202000
3.384220	443.487209	101.302000
3.385953	443.315297	101.402000
3.375649	444.072283	101.502000
3.378894	443.871746	101.602000
3.388298	443.156572	101.702000
3.381638	443.632520	101.802000
3.374295	444.223927	101.902000
3.384007	443.585976	102.002000
3.388100	443.319356	102.102000
3.378484	444.028218	102.202000
3.379569	443.987410	102.302000
3.389117	443.316598	102.402000
3.384053	443.726217	102.502000
3.377303	444.293650	102.603000
3.386130	443.637372	102.702000
3.388882	443.373222	102.802000
3.378996	444.120871	102.902000
3.380516	444.049314	103.002000
3.390650	443.338343	103.102000
3.385551	443.727631	103.202000
3.377021	444.365553	103.302000
3.385708	443.752290	103.402000
3.391042	443.330135	103.502000
3.380995	444.094194	103.602000
3.380878	444.097068	103.702000
3.390089	443.409027	103.802000
3.385383	443.756075	103.902000
3.377517	444.330953	104.002000
3.386146	443.694308	104.102000
3.390555	443.306808	104.202000
3.380166	444.103950	104.302000
3.379564	444.184070	104.402000
3.390507	443.368772	104.502000
3.387127	443.648660	104.602000
3.377789	444.336104	104.702000
3.384878	443.832824	104.802000
3.391457	443.334378	104.902000
3.382430	443.995392	105.002000
3.380526	444.155482	105.102000
3.390380	443.424902	105.202000
3.387228	443.664942	105.302000
3.379160	444.342255	105.402000
3.386789	443.766181	105.502000
3.392904	443.266330	105.602000
3.382325	444.060713	105.707000
3.380076	444.272698	105.803000
3.390587	443.463157	105.902000
3.388906	443.555888	106.002000
3.379363	444.240685	106.102000
3.384799	443.843018	106.202000
3.391699	443.326486	106.302000
3.383206	443.897201	106.402000
3.379428	444.154130	106.502000
3.388455	443.412533	106.602000
3.386359	443.483067	106.702000
3.375722	444.131175	106.802000
3.379982	443.676501	106.902000
3.385741	443.020291	107.002000
3.374293	443.589617	107.102000
3.367399	443.952430	107.202000
3.376665	443.151359	107.302000
3.376607	443.038678	107.403000
3.365464	443.788166	107.502000
3.369515	443.478271	107.602000
3.378252	442.920982	107.702000
3.371462	443.510722	107.802000
3.368112	443.868067	107.902000
3.378396	443.180486	108.002000
3.379312	443.155148	108.103000
3.369468	443.953052	108.202000
3.374444	443.651838	108.303000
3.383438	442.982042	108.402000
3.375591	443.549382	108.502000
3.369240	444.070822	108.603000
3.379387	443.381335	108.702000
3.381687	443.170031	108.803000
3.371781	443.905270	108.902000
3.374146	443.747399	109.002000
3.382958	443.120089	109.102000
3.376078	443.626176	109.206000
3.370607	444.051131	109.302000
3.379967	443.318366	109.402000
3.381337	443.169802	109.502000
3.370311	443.961229	109.602000
3.372353	443.808356	109.702000
3.382570	443.047642	109.802000
3.375717	443.524244	109.902000
3.368359	444.065439	110.002000
3.377623	443.417448	110.102000
3.381505	443.103523	110.202000
3.371372	443.851224	110.303000
3.372353	443.767320	110.402000
3.381640	443.084259	110.502000
3.376178	443.535841	110.602000
3.369628	444.068809	110.702000
3.379294	443.359511	110.802000
3.382647	443.074020	110.902000
3.371852	443.888242	111.002000
3.372528	443.898180	111.102000
3.383531	443.100295	111.202000
3.378814	443.419579	111.302000
3.370942	444.059384	111.402000
3.379059	443.511999	111.502000
3.383689	443.131581	111.602000
3.373831	443.861187	111.702000
3.374208	443.825670	111.802000
3.383962	443.124535	111.902000
3.378735	443.524266	112.002000
3.371518	444.081959	112.102000
3.381105	443.390426	112.202000
3.385220	443.064017	112.302000
3.374268	443.873530	112.402000
3.373783	443.962938	112.502000
3.385140	443.138795	112.602000
3.381312	443.442373	112.702000
3.373117	444.034083	112.802000
3.380352	443.516457	112.902000
3.384843	443.194281	113.002000
3.375543	443.865702	113.103000
3.375493	443.835001	113.202000
3.384922	443.152900	113.302000
3.380922	443.484967	113.402000
3.372957	444.116075	113.502000
3.381362	443.483493	113.602000
3.386538	443.081644	113.702000
3.375382	443.839702	113.805000
3.374338	443.970871	113.902000
3.385206	443.207240	114.002000
3.382208	443.407760	114.102000
3.374244	443.975881	114.202000
3.380589	443.523423	114.302000
3.385804	443.169969	114.402000
3.376431	443.866717	114.502000
3.375770	443.940937	114.602000
3.386327	443.179699	114.702000
3.383042	443.429960	114.802000
3.373770	444.188335	114.902000
3.381696	443.598196	115.002000
3.387802	443.100052	115.102000
3.377837	443.806043	115.202000
3.375009	444.103740	115.302000
3.385849	443.310697	115.403000
3.384392	443.415882	115.502000
3.375418	444.056260	115.602000
3.381305	443.623779	115.702000
3.386834	443.197897	115.802000
3.377589	443.903413	115.903000
3.375908	444.042120	116.003000
3.387137	443.172952	116.102000
3.383917	443.422581	116.202000
3.373940	444.183280	116.302000
3.380489	443.686919	116.402000
3.387827	443.112049	116.502000
3.378499	443.779606	116.602000
3.375334	444.088354	116.702000
3.385900	443.339102	116.802000
3.385087	443.389105	116.902000
3.375956	444.087695	117.002000
3.381731	443.656040	117.102000
3.387789	443.210296	117.202000
3.378404	443.887172	117.304000
3.376382	444.072666	117.402000
3.387628	443.237776	117.502000
3.386149	443.317480	117.602000
3.375182	444.200092	117.702000
3.381046	443.770517	117.802000
3.389235	443.140740	117.902000
3.380533	443.763627	118.002000
3.377015	444.064985	118.102000
3.386741	443.387280	118.202000
3.385818	443.410050	118.302000
3.376016	444.095393	118.402000
3.382025	443.649248	118.502000
3.388734	443.155010	118.602000
3.379601	443.860681	118.702000
3.376787	444.106026	118.802000
3.388449	443.216434	118.902000
3.387418	443.280297	119.002000
3.376348	444.101149	119.102000
3.380966	443.798828	119.202000
3.389573	443.143918	119.302000
3.382075	443.680367	119.402000
3.377595	444.014024	119.502000
3.387079	443.341161	119.602000
3.386142	443.390131	119.702000
3.376532	444.088978	119.802000
3.382288	443.643820	119.902000
3.389512	443.116384	120.002000
3.380148	443.808445	120.102000
3.375639	444.132111	120.202000
3.386602	443.245439	120.302000
3.386820	443.177693	120.402000
3.375438	444.028474	120.502000
3.379125	443.774617	120.602000
3.387809	443.111966	120.702000
3.380888	443.576144	120.803000
3.374921	443.990665	120.902000
3.383845	443.318969	121.002000
3.384240	443.236268	121.102000
3.373616	443.950169	121.202000
3.376979	443.653965	121.302000
3.385786	442.960534	121.402000
3.378073	443.561307	121.502000
3.371538	444.106675	121.602000
3.381928	443.364020	121.702000
3.385384	443.088165	121.802000
3.374705	443.883824	121.908000
3.376493	443.835043	122.002000
3.386378	443.136775	122.102000
3.381319	443.518549	122.202000
3.375032	443.993210	122.302000
3.383417	443.403509	122.402000
3.385889	443.272221	122.502000
3.375929	444.016208	122.602000
3.378667	443.796060	122.702000
3.388919	443.070342	122.802000
3.382451	443.579121	122.909000
3.374459	444.232738	123.002000
3.383805	443.562246	123.102000
3.388839	443.131354	123.202000
3.378517	443.884593	123.302000
3.378385	443.949148	123.402000
3.388178	443.265792	123.502000
3.383858	443.558452	123.602000
3.375993	444.091481	123.702000
3.383930	443.515304	123.802000
3.388387	443.193574	123.902000
3.378465	443.962814	124.002000
3.378808	443.932339	124.102000
3.389779	443.142089	124.202000
3.385334	443.497992	124.307000
3.375973	444.220996	124.402000
3.383613	443.651170	124.502000
3.390355	443.104936	124.602000
3.381041	443.797199	124.702000
3.379334	443.968165	124.802000
3.389001	443.281215	124.902000
3.385738	443.509091	125.002000
3.377828	444.074474	125.102000
3.385358	443.508370	125.202000
3.390773	443.159709	125.302000
3.380995	443.886703	125.402000
3.379923	443.987675	125.502000
3.390801	443.201012	125.602000
3.388082	443.404481	125.702000
3.377992	444.188169	125.802000
3.384276	443.708876	125.902000
3.392002	443.123433	126.002000
3.383639	443.710634	126.102000
3.380308	443.992914	126.202000
3.389757	443.338690	126.302000
3.388536	443.439393	126.402000
3.379348	444.096185	126.502000
3.384974	443.668199	126.602000
3.392900	443.062090	126.702000
3.383968	443.758422	126.803000
3.379097	444.172530	126.902000
3.389987	443.361296	127.003000
3.391048	443.253144	127.102000
3.380294	444.056325	127.202000
3.383096	443.908619	127.302000
3.392732	443.140427	127.402000
3.386472	443.581079	127.502000
3.379651	444.124389	127.602000
3.388226	443.523982	127.702000
3.390358	443.346738	127.802000
3.380611	444.048792	127.903000
3.383388	443.803946	128.002000
3.392951	443.111155	128.102000
3.386586	443.630173	128.202000
3.378676	444.251281	128.302000
3.387830	443.551077	128.402000
3.392299	443.169931	128.502000
3.381825	443.944319	128.602000
3.381632	443.983556	128.702000
3.391517	443.258643	128.802000
3.387497	443.532950	128.902000
3.379546	444.108630	129.002000
3.386656	443.609202	129.102000
3.390883	443.287726	129.202000
3.381336	443.947343	129.302000
3.381053	443.946065	129.402000
3.391396	443.119814	129.502000
3.386666	443.496657	129.602000
3.376848	444.226637	129.702000
3.384480	443.638218	129.802000
3.391090	443.056944	129.902000
3.381578	443.743503	130.007000
3.378206	444.055732	130.102000
3.388481	443.297254	130.202000
3.387045	443.373453	130.302000
3.377852	444.026544	130.402000
3.383319	443.624483	130.502000
3.389969	443.131173	130.602000
3.380974	443.734384	130.702000
3.377830	443.943426	130.802000
3.388636	443.111768	130.902000
3.386199	443.264868	131.003000
3.375203	444.105176	131.102000
3.380328	443.690473	131.202000
3.389130	442.985247	131.302000
3.381213	443.503299	131.402000
3.376080	443.942304	131.502000
3.385691	443.302938	131.602000
3.386341	443.254029	131.702000
3.377238	443.932671	131.802000
3.382033	443.615644	131.902000
3.390220	443.040998	132.002000
3.382574	443.642308	132.102000
3.377667	443.999739	132.202000
3.388469	443.237730	132.302000
3.389601	443.187108	132.402000
3.378715	444.041538	132.502000
3.382017	443.805283	132.602000
3.392184	443.020207	132.702000
3.385227	443.511814	132.802000
3.378899	444.033109	132.902000
3.387859	443.374408	133.002000
3.389613	443.265811	133.102000
3.380115	443.933716	133.202000
3.383981	443.652481	133.302000
3.391981	443.051059	133.402000
3.384400	443.643534	133.502000
3.378733	444.057855	133.602000
3.388761	443.317962	133.702000
3.390959	443.111846	133.802000
3.379915	443.931602	133.902000
3.382249	443.785997	134.002000
3.391693	443.039372	134.102000
3.385433	443.497479	134.202000
3.378912	444.016101	134.302000
3.387743	443.417526	134.402000
3.389577	443.285618	134.502000
3.380203	443.924864	134.602000
3.383662	443.672061	134.702000
3.392349	443.033625	134.802000
3.384873	443.604213	134.902000
3.378360	444.155704	135.002000
3.388673	443.372179	135.102000
3.391889	443.103906	135.202000
3.381050	443.925120	135.302000
3.382199	443.884881	135.402000
3.391800	443.162050	135.502000
3.386474	443.538688	135.602000
3.379687	444.054972	135.702000
3.388459	443.465829	135.802000
3.390849	443.292157	135.902000
3.381292	443.956596	136.002000
3.383558	443.783909	136.102000
3.392904	443.080349	136.202000
3.386587	443.575782	136.302000
3.378600	444.201908	136.402000
3.387887	443.484715	136.503000
3.393072	443.043573	136.602000
3.382345	443.859568	136.702000
3.381769	443.925708	136.802000
3.391744	443.221345	136.902000
3.387641	443.510412	137.004000
3.380490	444.048669	137.102000
3.388596	443.508005	137.202000
3.392914	443.197627	137.303000
3.382927	443.909931	137.402000
3.382589	443.907467	137.502000
3.393707	443.104540	137.602000
3.389429	443.441813	137.702000
3.380175	444.189033	137.802000
3.388258	443.587382	137.902000
3.394629	443.052438	138.002000
3.385134	443.751156	138.102000
3.382669	443.985185	138.202000
3.392499	443.279688	138.302000
3.389887	443.443457	138.402000
3.381737	444.035453	138.502000
3.389405	443.498247	138.602000
3.394503	443.099281	138.702000
3.383919	443.869985	138.802000
3.382534	443.960011	138.902000
3.393671	443.124684	139.002000
3.391013	443.325995	139.102000
3.380769	444.109596	139.202000
3.387651	443.611203	139.302000
3.394686	443.043242	139.406000
3.385952	443.666491	139.503000
3.382076	443.989773	139.602000
3.391641	443.309370	139.702000
3.391199	443.329092	139.802000
3.382353	443.972067	139.903000
3.387739	443.585390	140.003000
3.395123	443.052365	140.102000
3.386463	443.681330	140.202000
3.381134	444.093413	140.302000
3.392283	443.258162	140.403000
3.393917	443.136162	140.505000
3.383083	444.008869	140.602000
3.385043	443.882459	140.702000
3.395278	443.083469	140.802000
3.389563	443.474651	140.902000
3.382555	444.023515	141.002000
3.390357	443.489452	141.102000
3.394679	443.208139	141.202000
3.385419	443.879776	141.302000
3.385818	443.841943	141.402000
3.395295	443.135814	141.502000
3.390732	443.503301	141.602000
3.381997	444.145932	141.702000
3.389972	443.572756	141.802000
3.396857	443.036554	141.902000
3.386525	443.819815	142.002000
3.383798	444.051115	142.102000
3.394330	443.268300	142.202000
3.392771	443.327389	142.302000
3.383606	444.008534	142.402000
3.388777	443.675160	142.502000
3.395648	443.182587	142.602000
3.387439	443.755154	142.702000
3.384545	443.949816	142.802000
3.394408	443.224409	142.902000
3.392965	443.358042	143.002000
3.382887	444.146025	143.102000
3.388602	443.718652	143.202000
3.397550	443.028735	143.302000
3.389136	443.653016	143.402000
3.382766	444.175665	143.502000
3.392690	443.450067	143.602000
3.395029	443.214934	143.702000
3.385036	443.947056	143.802000
3.387618	443.823027	143.902000
3.395992	443.240637	144.002000
3.389331	443.704734	144.102000
3.384086	444.071616	144.202000
3.393996	443.324603	144.302000
3.395579	443.226418	144.402000
3.384669	444.088828	144.502000
3.387415	443.876192	144.602000
3.397884	443.056442	144.702000
3.391284	443.549856	144.802000
3.383311	444.164766	144.902000
3.392271	443.511515	145.002000
3.396734	443.164488	145.102000
3.387059	443.830184	145.202000
3.387098	443.867822	145.302000
3.396524	443.193858	145.402000
3.391841	443.564003	145.502000
3.384323	444.103223	145.602000
3.392880	443.440025	145.702000
3.398130	443.051249	145.802000
3.387479	443.860911	145.902000
3.385876	444.030818	146.002000
3.396957	443.185092	146.102000
3.394623	443.309106	146.202000
3.384437	444.049141	146.302000
3.390199	443.652958	146.405000
3.397952	443.050133	146.502000
3.389800	443.662840	146.603000
3.386142	443.921762	146.702000
3.395095	443.300851	146.802000
3.394669	443.326670	146.902000
3.385099	444.025245	147.002000
3.390750	443.615042	147.102000
3.398813	442.994643	147.202000
3.390448	443.659872	147.302000
3.384563	444.152748	147.402000
3.395315	443.333160	147.502000
3.397322	443.145179	147.602000
3.386557	443.954392	147.702000
3.388338	443.840975	147.802000
3.398275	443.108830	147.902000
3.392743	443.511802	148.002000
3.385832	444.042837	148.102000
3.393683	443.465480	148.202000
3.396943	443.227981	148.302000
3.387534	443.925471	148.402000
3.388873	443.806902	148.502000
3.398989	443.049226	148.603000
3.393166	443.467794	148.702000
3.384215	444.197724	148.802000
3.392862	443.530990	148.902000
3.399017	443.028892	149.002000
3.388584	443.768773	149.102000
3.386785	443.948439	149.202000
3.396436	443.260140	149.302000
3.393876	443.427404	149.402000
3.385230	444.033883	149.502000
3.391836	443.542064	149.602000
3.397063	443.164379	149.702000
3.388204	443.808862	149.802000
3.386642	443.912032	149.906000
3.396906	443.131034	150.002000
3.394101	443.356644	150.102000
3.383700	444.149859	150.202000
3.390131	443.661441	150.302000
3.398085	443.016693	150.402000
3.389501	443.627338	150.502000
3.385216	443.988551	150.602000
3.394877	443.294713	150.702000
3.394491	443.318218	150.802000
3.384770	444.033066	150.902000
3.390414	443.610388	151.002000
3.397785	443.075079	151.102000
3.389310	443.674751	151.202000
3.384875	444.016916	151.302000
3.395586	443.226557	151.402000
3.396390	443.164957	151.502000
3.385524	444.023018	151.602000
3.388977	443.790400	151.702000
3.398793	442.997416	151.802000
3.392291	443.458248	151.902000
3.385234	444.027820	152.002000
3.393514	443.438623	152.102000
3.396743	443.184479	152.202000
3.387366	443.863917	152.302000
3.389034	443.738736	152.402000
3.398596	443.035637	152.502000
3.392215	443.540902	152.602000
3.385005	444.087563	152.702000
3.394831	443.375949	152.802000
3.399009	443.062385	152.902000
3.388421	443.881256	153.002000
3.388523	443.925797	153.102000
3.399561	443.104755	153.206000
3.395376	443.352521	153.302000
3.386903	444.019500	153.402000
3.394280	443.527760	153.502000
3.399613	443.161064	153.602000
3.390353	443.830887	153.702000
3.389745	443.832922	153.802000
3.399523	443.115526	153.902000
3.396009	443.391870	154.002000
3.386437	444.110989	154.102000
3.394732	443.496952	154.208000
3.401627	442.968485	154.302000
3.391667	443.702169	154.403000
3.387903	444.024710	154.502000
3.398675	443.240097	154.602000
3.398645	443.225876	154.702000
3.388482	443.963349	154.802000
3.393132	443.659474	154.902000
3.401402	443.079163	155.002000
3.393427	443.685407	155.102000
3.389354	443.973947	155.206000
3.399244	443.217835	155.302000
3.399299	443.244065	155.402000
3.388722	444.083616	155.502000
3.393527	443.779629	155.602000
3.403538	443.013952	155.702000
3.395562	443.597584	155.802000
3.388651	444.149823	155.902000
3.398132	443.452939	156.002000
3.401924	443.181980	156.102000
3.391901	443.890364	156.202000
3.392890	443.884568	156.302000
3.402567	443.181666	156.402000
3.397014	443.603742	156.502000
3.390276	444.105170	156.602000
3.398579	443.483125	156.702000
3.402521	443.206128	156.802000
3.391959	444.021145	156.902000
3.392469	444.002533	157.002000
3.403605	443.175616	157.102000
3.399565	443.437340	157.202000
3.389859	444.196340	157.302000
3.397447	443.671147	157.402000
3.404067	443.197252	157.502000
3.395552	443.842383	157.602000
3.393190	444.046944	157.702000
3.403494	443.313240	157.802000
3.400617	443.522147	157.902000
3.391833	444.185610	158.007000
3.399105	443.638927	158.102000
3.405563	443.157671	158.202000
3.395795	443.887652	158.302000
3.393394	444.128866	158.403000
3.404155	443.316985	158.502000
3.403176	443.358930	158.602000
3.392294	444.179370	158.702000
3.397635	443.812097	158.802000
3.406118	443.221095	158.902000
3.398233	443.764629	159.002000
3.394567	444.064854	159.102000
3.403765	443.405837	159.202000
3.403232	443.445788	159.302000
3.393421	444.165501	159.402000
3.399573	443.714839	159.502000
3.407763	443.121801	159.602000
3.398399	443.807063	159.702000
3.393769	444.224789	159.802000
3.404384	443.440761	159.902000
3.405465	443.324025	160.002000
3.394940	444.070932	160.102000
3.398215	443.846254	160.202000
3.407698	443.210321	160.302000
3.400578	443.719883	160.402000
3.395165	444.121186	160.502000
3.404186	443.437382	160.602000
3.405103	443.370463	160.702000
3.395167	444.098479	160.802000
3.398793	443.860273	160.902000
3.408552	443.140052	161.002000
3.401573	443.637104	161.102000
3.394065	444.243560	161.202000
3.403674	443.556119	161.302000
3.407416	443.226641	161.402000
3.397075	443.953442	161.502000
3.398035	443.923919	161.602000
3.407303	443.275925	161.702000
3.402616	443.639377	161.802000
3.395159	444.153954	161.902000
3.404151	443.504280	162.002000
3.407330	443.251776	162.102000
3.397049	444.023666	162.202000
3.398003	443.967197	162.302000
3.408631	443.190346	162.402000
3.403187	443.562122	162.503000
3.393971	444.277155	162.602000
3.402541	443.670680	162.702000
3.408512	443.187742	162.802000
3.398694	443.906682	162.902000
3.397479	443.994974	163.002000
3.407000	443.350575	163.102000
3.403280	443.633636	163.202000
3.395381	444.205786	163.314000
3.404023	443.552197	163.402000
3.408460	443.174988	163.502000
3.398037	443.968998	163.602000
3.396673	444.096849	163.702000
3.407962	443.269168	163.802000
3.404855	443.481213	163.902000
3.394883	444.255223	164.002000
3.401620	443.771591	164.102000
3.409014	443.210853	164.202000
3.400131	443.845005	164.302000
3.397353	444.102400	164.402000
3.406852	443.439794	164.502000
3.405102	443.553507	164.602000
3.396373	444.198981	164.702000
3.402784	443.716361	164.802000
3.409868	443.169506	164.902000
3.400550	443.890768	165.002000
3.396037	444.267430	165.102000
3.407263	443.434275	165.202000
3.407404	443.390524	165.302000
3.396777	444.142478	165.402000
3.400898	443.875080	165.502000
3.409766	443.207278	165.602000
3.402589	443.735185	165.702000
3.397306	444.141298	165.802000
3.406305	443.530226	165.902000
3.407613	443.450697	166.002000
3.398230	444.088485	166.102000
3.401262	443.852086	166.202000
3.410453	443.168762	166.302000
3.403187	443.708387	166.402000
3.396249	444.261905	166.502000
3.406202	443.557592	166.602000
3.409572	443.217811	166.702000
3.399104	443.991059	166.806000
3.399731	443.973283	166.902000
3.409532	443.241848	167.002000
3.404338	443.623709	167.102000
3.397329	444.130334	167.202000
3.405292	443.559077	167.302000
3.409145	443.281604	167.402000
3.399372	444.000041	167.502000
3.400099	443.911400	167.603000
3.410472	443.139078	167.702000
3.404706	443.562054	167.802000
3.395602	444.272534	167.905000
3.404362	443.638461	168.002000
3.410520	443.132011	168.102000
3.400550	443.838356	168.202000
3.398904	443.986944	168.302000
3.408662	443.321643	168.402000
3.405525	443.515093	168.502000
3.397482	444.111943	168.602000
3.404407	443.603761	168.702000
3.410070	443.184263	168.802000
3.400316	443.898508	168.902000
3.398669	444.010732	169.003000
3.409551	443.195138	169.102000
3.406940	443.398348	169.202000
3.396524	444.203919	169.302000
3.402682	443.756836	169.402000
3.410667	443.129291	169.502000
3.402205	443.708047	169.602000
3.397482	444.061492	169.702000
3.407240	443.407340	169.802000
3.407003	443.403842	169.902000
3.397679	444.103582	170.002000
3.402838	443.705768	170.102000
3.410799	443.139492	170.202000
3.401233	443.835818	170.302000
3.397069	444.137520	170.402000
3.407596	443.341924	170.502000
3.408493	443.277493	170.602000
3.397301	444.128622	170.702000
3.400627	443.909267	170.802000
3.410411	443.164839	170.902000
3.403426	443.598615	171.002000
3.396763	444.100846	171.102000
3.405838	443.494043	171.202000
3.407785	443.355011	171.302000
3.398579	444.006044	171.402000
3.401040	443.825107	171.502000
3.409970	443.156655	171.602000
3.403134	443.660749	171.702000
3.395814	444.212244	171.802000
3.405658	443.493698	171.902000
3.409976	443.141393	172.002000
3.398688	443.972445	172.102000
3.398687	444.008884	172.202000
3.409341	443.210866	172.302000
3.404714	443.494471	172.402000
3.396922	444.058517	172.505000
3.404776	443.533361	172.602000
3.409183	443.245229	172.702000
3.399250	443.943897	172.802000
3.399815	443.887515	172.902000
3.409783	443.134361	173.002000
3.405453	443.479259	173.102000
3.396110	444.202005	173.202000
3.404782	443.612657	173.302000
3.411161	443.085163	173.402000
3.401325	443.814901	173.502000
3.398960	444.032078	173.602000
3.409181	443.291280	173.702000
3.407163	443.411390	173.802000
3.398404	444.033555	173.902000
3.405120	443.589965	174.002000
3.410964	443.179419	174.102000
3.401486	443.878473	174.202000
3.400010	443.959060	174.302000
3.410561	443.161932	174.403000
3.407837	443.365458	174.502000
3.397823	444.152649	174.602000
3.404379	443.697684	174.702000
3.412420	443.077497	174.802000
3.403485	443.694215	174.902000
3.399366	444.028991	175.002000
3.408891	443.352630	175.102000
3.408132	443.377768	175.203000
3.399171	444.066701	175.302000
3.405094	443.624403	175.402000
3.411978	443.141942	175.502000
3.403148	443.790909	175.602000
3.399006	444.079685	175.702000
3.409943	443.247653	175.802000
3.409262	443.273180	175.902000
3.398671	444.118173	176.002000
3.403555	443.780896	176.102000
3.412437	443.117845	176.202000
3.404946	443.615028	176.302000
3.399397	444.055818	176.402000
3.408560	443.407320	176.502000
3.409798	443.312025	176.603000
3.400266	443.998173	176.702000
3.404308	443.729622	176.802000
3.412302	443.155731	176.902000
3.404331	443.729619	177.002000
3.398455	444.170709	177.102000
3.409142	443.363153	177.202000
3.411345	443.175481	177.302000
3.400324	444.032564	177.402000
3.402496	443.917040	177.502000
3.412229	443.187700	177.602000
3.406124	443.578248	177.702000
3.399537	444.073884	177.802000
3.407799	443.515177	177.902000
3.410956	443.263383	178.002000
3.401070	443.983566	178.102000
3.403218	443.855801	178.202000
3.412513	443.174234	178.302000
3.406155	443.639091	178.402000
3.398856	444.191263	178.502000
3.408011	443.525591	178.602000
3.413022	443.118617	178.702000
3.402176	443.932949	178.802000
3.401761	444.029631	178.902000
3.411861	443.258794	179.002000
3.408103	443.500975	179.102000
3.400344	444.066734	179.202000
3.408094	443.520499	179.302000
3.412207	443.259479	179.402000
3.402749	443.962736	179.502000
3.402631	443.954609	179.602000
3.412836	443.172692	179.702000
3.408644	443.512247	179.802000
3.399775	444.176556	179.902000
3.407553	443.596202	180.002000
3.414225	443.072199	180.102000
3.404405	443.834658	180.202000
3.401949	444.026626	180.302000
3.411809	443.317314	180.402000
3.409648	443.430641	180.502000
3.401432	444.010902	180.602000
3.408278	443.539371	180.702000
3.413926	443.164951	180.802000
3.404167	443.898694	180.902000
3.402445	444.005265	181.002000
3.413508	443.158798	181.102000
3.410862	443.349991	181.202000
3.400894	444.113129	181.302000
3.407382	443.645655	181.402000
3.414807	443.079515	181.502000
3.405949	443.723763	181.602000
3.401983	444.041555	181.702000
3.411924	443.311074	181.802000
3.411239	443.352024	181.903000
3.402930	443.935679	182.002000
3.407639	443.642132	182.102000
3.414404	443.156097	182.202000
3.405723	443.837693	182.302000
3.401866	444.112827	182.402000
3.413110	443.244967	182.503000
3.413309	443.214909	182.602000
3.402663	444.038818	182.702000
3.406299	443.809076	182.802000
3.415218	443.135089	182.903000
3.408068	443.634769	183.002000
3.402957	444.044006	183.102000
3.411811	443.416249	183.202000
3.413132	443.302925	183.302000
3.403827	444.006191	183.402000
3.407453	443.730662	183.502000
3.415101	443.181912	183.602000
3.407457	443.765026	183.702000
3.402140	444.154426	183.802000
3.412475	443.358487	183.902000
3.414939	443.192077	184.002000
3.403601	444.053820	184.102000
3.405229	443.974221	184.202000
3.414689	443.261269	184.302000
3.409502	443.577549	184.410000
3.402998	444.075994	184.502000
3.411350	443.499523	184.602000
3.414024	443.303326	184.702000
3.404213	444.012540	184.802000
3.406037	443.891833	184.902000
3.415128	443.259405	185.002000
3.409689	443.645199	185.102000
3.402360	444.182352	185.202000
3.411648	443.475173	185.302000
3.416008	443.134669	185.402000
3.405361	443.947766	185.502000
3.404681	444.051599	185.603000
3.414458	443.326461	185.702000
3.411670	443.485941	185.802000
3.403717	444.048050	185.902000
3.410895	443.550800	186.002000
3.415346	443.217994	186.102000
3.405283	443.972356	186.202000
3.405298	443.952852	186.302000
3.415757	443.186116	186.402000
3.411831	443.456643	186.502000
3.402788	444.134922	186.602000
3.410068	443.579412	186.702000
3.416509	443.090481	186.802000
3.407580	443.747970	186.902000
3.403757	444.089839	187.002000
3.414016	443.344490	187.102000
3.413810	443.306543	187.202000
3.404639	443.968213	187.302000
3.409034	443.673915	187.402000
3.416284	443.139952	187.502000
3.407590	443.799900	187.602000
3.403908	444.068828	187.702000
3.414836	443.257178	187.802000
3.415066	443.206781	187.902000
3.404017	444.047117	188.002000
3.407752	443.781368	188.102000
3.416723	443.089743	188.202000
3.410192	443.562359	188.302000
3.403288	444.106457	188.402000
3.411899	443.458131	188.502000
3.415713	443.144084	188.602000
3.405880	443.828485	188.702000
3.406450	443.803843	188.802000
3.415303	443.164197	188.902000
3.410051	443.548876	189.002000
3.402943	444.086075	189.102000
3.411874	443.385619	189.202000
3.416130	443.044714	189.302000
3.405179	443.856295	189.402000
3.404272	443.943436	189.502000
3.415128	443.103523	189.602000
3.411677	443.349858	189.702000
3.402525	444.055405	189.802000
3.409595	443.549344	189.902000
3.415350	443.093213	190.002000
3.406325	443.702960	190.102000
3.403750	443.867217	190.202000
3.413475	443.211289	190.302000
3.410666	443.418182	190.402000
3.402069	444.058727	190.502000
3.408972	443.498355	190.602000
3.415422	442.992032	190.702000
3.405454	443.729188	190.802000
3.401213	444.059165	190.902000
3.412297	443.247675	191.002000
3.412091	443.205600	191.102000
3.402140	443.942137	191.202000
3.406322	443.676146	191.302000
3.413848	443.107111	191.402000
3.406238	443.606598	191.503000
3.401910	443.919849	191.602000
3.411627	443.223249	191.702000
3.411073	443.288785	191.802000
3.401569	443.993181	191.902000
3.406294	443.620155	192.002000
3.414697	442.946947	192.103000
3.405749	443.607792	192.202000
3.399845	444.078718	192.302000
3.410234	443.314870	192.402000
3.412681	443.101654	192.503000
3.402157	443.863389	192.602000
3.404131	443.762018	192.702000
3.412816	443.099180	192.802000
3.406554	443.514974	192.902000
3.401139	443.915628	193.002000
3.410380	443.245725	193.102000
3.412282	443.123597	193.202000
3.401003	443.953167	193.302000
3.404087	443.687865	193.402000
3.413456	442.953649	193.503000
3.406792	443.408070	193.602000
3.399364	443.995260	193.702000
3.408820	443.317679	193.802000
3.412463	443.013812	193.902000
3.402154	443.736710	194.002000
3.402516	443.728149	194.102000
3.411643	443.057850	194.202000
3.406737	443.379439	194.302000
3.400173	443.853289	194.402000
3.408990	443.215003	194.502000
3.411987	443.009897	194.602000
3.401236	443.808652	194.702000
3.402154	443.727705	194.802000
3.412669	442.918488	194.902000
3.408067	443.249589	195.002000
3.399233	443.948446	195.102000
3.407233	443.370587	195.202000
3.413041	442.939173	195.302000
3.403621	443.605251	195.402000
3.401869	443.738791	195.502000
3.411158	443.079460	195.602000
3.408531	443.253420	195.702000
3.400753	443.810305	195.802000
3.407779	443.342046	195.906000
3.413089	442.967046	196.003000
3.403137	443.708369	196.102000
3.401305	443.840260	196.202000
3.412230	443.016550	196.302000
3.410697	443.114917	196.402000
3.400464	443.898526	196.502000
3.406367	443.525149	196.602000
3.413462	442.992468	196.702000
3.405427	443.538325	196.802000
3.401973	443.778763	196.903000
3.411170	443.139369	197.002000
3.410801	443.167808	197.102000
3.401095	443.887126	197.202000
3.406538	443.495005	197.302000
3.414121	442.932627	197.402000
3.405174	443.563534	197.502000
3.400086	443.962799	197.602000
3.411183	443.119442	197.702000
3.412302	443.029210	197.803000
3.401742	443.815290	197.902000
3.404054	443.698526	198.002000
3.413069	443.039337	198.102000
3.406866	443.464376	198.202000
3.401436	443.829020	198.302000
3.410385	443.212015	198.402000
3.412061	443.109379	198.502000
3.401949	443.837445	198.602000
3.404957	443.619207	198.702000
3.413696	442.964027	198.802000
3.407166	443.427891	198.902000
3.399907	444.008463	199.002000
3.410148	443.246957	199.102000
3.413572	442.951442	199.202000
3.402939	443.740253	199.302000
3.402958	443.797563	199.402000
3.412577	443.090088	199.502000
3.408681	443.314299	199.602000
3.401557	443.810624	199.703000
3.409521	443.261599	199.802000
3.412959	443.011955	199.902000
3.402557	443.803976	200.002000
3.403409	443.717921	200.102000
3.413600	442.932240	200.202000
3.409199	443.244598	200.302000
3.400319	443.913573	200.402000
3.408059	443.387328	200.502000
3.414092	442.890769	200.602000
3.404132	443.622603	200.702000
3.401889	443.822738	200.802000
3.411824	443.089437	200.902000
3.409973	443.174867	201.002000
3.401668	443.764509	201.103000
3.408251	443.315815	201.202000
3.413321	442.940271	201.302000
3.403160	443.708760	201.402000
3.401893	443.771013	201.502000
3.413434	442.893151	201.603000
3.410493	443.077441	201.702000
3.400669	443.836913	201.802000
3.407035	443.408877	201.902000
3.414207	442.843756	202.002000
3.405074	443.495720	202.102000
3.401690	443.771722	202.202000
3.411584	443.050304	202.302000
3.410324	443.094973	202.402000
3.401311	443.760361	202.504000
3.407176	443.323872	202.602000
3.413150	442.896870	202.702000
3.403626	443.619538	202.802000
3.401021	443.794699	202.902000
3.412184	442.900419	203.002000
3.410657	442.991293	203.102000
3.399977	443.805255	203.202000
3.404453	443.505009	203.302000
3.412406	442.898462	203.402000
3.404926	443.398654	203.505000
3.400618	443.696072	203.602000
3.409326	443.091184	203.702000
3.410138	442.993632	203.802000
3.400324	443.694294	203.902000
3.403889	443.434838	204.002000
3.411926	442.845931	204.102000
3.403839	443.428878	204.202000
3.398683	443.818575	204.302000
3.409145	443.006202	204.402000
3.410710	442.846537	204.503000
3.399267	443.718537	204.602000
3.401510	443.609984	204.702000
3.411137	442.889775	204.802000
3.405217	443.270242	204.902000
3.398968	443.699337	205.002000
3.407649	443.071865	205.104000
3.409303	442.967753	205.202000
3.399301	443.670977	205.302000
3.401359	443.513381	205.402000
3.410175	442.843544	205.502000
3.404378	443.265068	205.602000
3.397245	443.784953	205.702000
3.406603	443.062044	205.802000
3.410486	442.742697	205.902000
3.399290	443.547117	206.002000
3.398476	443.660446	206.102000
3.408880	442.884858	206.202000
3.405267	443.076275	206.302000
3.397097	443.653920	206.402000
3.403469	443.179310	206.502000
3.408313	442.824496	206.602000
3.398849	443.509291	206.702000
3.398464	443.530358	206.802000
3.408628	442.770175	206.902000
3.405052	443.022152	207.002000
3.395573	443.717870	207.102000
3.402985	443.178158	207.202000
3.408982	442.700950	207.303000
3.399483	443.393201	207.402000
3.396989	443.603043	207.502000
3.407195	442.851037	207.602000
3.405681	442.908287	207.702000
3.396541	443.535335	207.802000
3.401728	443.168517	207.902000
3.407850	442.736221	208.002000
3.398670	443.367602	208.102000
3.396749	443.527261	208.202000
3.407025	442.736741	208.302000
3.405744	442.806516	208.402000
3.394717	443.628146	208.502000
3.399728	443.286286	208.602000
3.408173	442.590848	208.702000
3.399839	443.167542	208.802000
3.394557	443.582668	208.902000
3.404723	442.846767	209.002000
3.405123	442.768954	209.102000
3.395350	443.430365	209.202000
3.398353	443.193170	209.302000
3.406070	442.659640	209.403000
3.398911	443.188900	209.502000
3.394072	443.539816	209.602000
3.403929	442.760634	209.702000
3.405295	442.632976	209.802000
3.393931	443.461464	209.902000
3.395245	443.386215	210.002000
3.405646	442.594556	210.102000
3.402084	442.830298	210.202000
3.392844	443.514500	210.302000
3.398872	443.097270	210.402000
3.405718	442.543671	210.502000
3.397733	443.096364	210.602000
3.392628	443.453159	210.702000
3.402023	442.755401	210.802000
3.403501	442.635436	210.902000
3.394012	443.360352	211.002000
3.394719	443.265995	211.102000
3.403580	442.586633	211.203000
3.399029	442.857221	211.302000
3.390610	443.477336	211.402000
3.397193	442.981295	211.502000
3.404052	442.466821	211.603000
3.395021	443.112266	211.702000
3.390152	443.468553	211.802000
3.399222	442.795620	211.902000
3.402283	442.517357	212.002000
3.391579	443.255295	212.102000
3.391831	443.224315	212.203000
3.400923	442.511304	212.302000
3.397746	442.727021	212.402000
3.388241	443.404028	212.502000
3.393001	443.013702	212.602000
3.399399	442.464557	212.702000
3.392105	442.931281	212.802000
3.387240	443.301594	212.902000
3.395818	442.643648	213.002000
3.396880	442.496188	213.102000
3.385827	443.203874	213.205000
3.386900	443.061272	213.302000
3.396439	442.293732	213.402000
3.392354	442.536622	213.502000
3.382044	443.254103	213.602000
3.387111	442.828514	213.702000
3.394645	442.240926	213.802000
3.387370	442.785747	213.902000
3.381272	443.265794	214.002000
3.390257	442.576530	214.102000
3.393498	442.284159	214.202000
3.383774	442.996830	214.303000
3.382713	443.107085	214.402000
3.391816	442.419400	214.502000
3.389846	442.513840	214.602000
3.381701	443.133844	214.702000
3.387771	442.747758	214.802000
3.395026	442.258723	214.902000
3.387288	442.864293	215.002000
3.382779	443.240689	215.102000
3.393193	442.508844	215.202000
3.396575	442.305946	215.302000
3.386768	443.122229	215.402000
3.386470	443.214659	215.502000
3.397042	442.409919	215.602000
3.394428	442.589199	215.707000
3.386083	443.273072	215.802000
3.391498	442.957301	215.902000
3.399536	442.401319	216.002000
3.393108	442.909620	216.102000
3.388231	443.317092	216.202000
3.396980	442.690644	216.302000
3.399124	442.561742	216.402000
3.390040	443.237908	216.502000
3.391189	443.166540	216.602000
3.401317	442.430991	216.702000
3.398057	442.710702	216.802000
3.388188	443.486833	216.902000
3.394598	443.030876	217.002000
3.402935	442.389640	217.102000
