probe voltage (V), probe current (A), resistance (9.9e37 if not enabled) , timestamp , status word ,
-4.600000E+01,-1.086762E-07,+9.910000E+37,+3.401726E+03,+2.150800E+04,
-4.590000E+01,-9.301785E-08,+9.910000E+37,+3.402783E+03,+2.150800E+04,
-4.580000E+01,-8.140054E-08,+9.910000E+37,+3.403843E+03,+2.150800E+04,
-4.570000E+01,-7.938017E-08,+9.910000E+37,+3.404904E+03,+2.150800E+04,
-4.560000E+01,-7.786470E-08,+9.910000E+37,+3.405966E+03,+2.150800E+04,
-4.550000E+01,-7.382392E-08,+9.910000E+37,+3.407026E+03,+2.150800E+04,
-4.540000E+01,-6.170146E-08,+9.910000E+37,+3.408086E+03,+2.150800E+04,
-4.530000E+01,-6.220656E-08,+9.910000E+37,+3.409146E+03,+2.150800E+04,
-4.520000E+01,-6.018613E-08,+9.910000E+37,+3.410204E+03,+2.150800E+04,
-4.510000E+01,-5.715553E-08,+9.910000E+37,+3.411260E+03,+2.150800E+04,
-4.500000E+01,-5.412491E-08,+9.910000E+37,+3.412320E+03,+2.150800E+04,
-4.490000E+01,-5.463003E-08,+9.910000E+37,+3.413399E+03,+2.150800E+04,
-4.480000E+01,-5.058917E-08,+9.910000E+37,+3.414458E+03,+2.150800E+04,
-4.470000E+01,-4.553819E-08,+9.910000E+37,+3.415517E+03,+2.150800E+04,
-4.460000E+01,-4.048713E-08,+9.910000E+37,+3.416576E+03,+2.150800E+04,
-4.450000E+01,-3.846672E-08,+9.910000E+37,+3.417635E+03,+2.150800E+04,
-4.440000E+01,-3.543610E-08,+9.910000E+37,+3.418695E+03,+2.150800E+04,
-4.430000E+01,-3.543609E-08,+9.910000E+37,+3.419758E+03,+2.150800E+04,
-4.420000E+01,-3.038507E-08,+9.910000E+37,+3.420845E+03,+2.150800E+04,
-4.410000E+01,-2.886974E-08,+9.910000E+37,+3.421924E+03,+2.150800E+04,
-4.400000E+01,-2.179831E-08,+9.910000E+37,+3.422986E+03,+2.150800E+04,
-4.390000E+01,-1.977791E-08,+9.910000E+37,+3.424045E+03,+2.150800E+04,
-4.380000E+01,-1.674729E-08,+9.910000E+37,+3.425105E+03,+2.150800E+04,
-4.370000E+01,-1.573707E-08,+9.910000E+37,+3.426168E+03,+2.150800E+04,
-4.360000E+01,-1.119116E-08,+9.910000E+37,+3.427228E+03,+2.150800E+04,
-4.350000E+01,-5.635015E-09,+9.910000E+37,+3.428288E+03,+2.150800E+04,
-4.340000E+01,-6.645222E-09,+9.910000E+37,+3.429350E+03,+2.150800E+04,
-4.330000E+01,-6.140118E-09,+9.910000E+37,+3.430411E+03,+2.150800E+04,
-4.320000E+01,-5.839865E-10,+9.910000E+37,+3.431471E+03,+2.150800E+04,
-4.310000E+01,+4.971738E-09,+9.910000E+37,+3.432531E+03,+2.150800E+04,
-4.300000E+01,+2.951529E-09,+9.910000E+37,+3.433591E+03,+2.150800E+04,
-4.290000E+01,+6.486892E-09,+9.910000E+37,+3.434649E+03,+2.150800E+04,
-4.280000E+01,+8.507100E-09,+9.910000E+37,+3.435711E+03,+2.150800E+04,
-4.270000E+01,+1.153741E-08,+9.910000E+37,+3.436771E+03,+2.150800E+04,
-4.260000E+01,+1.153741E-08,+9.910000E+37,+3.437850E+03,+2.150800E+04,
-4.250000E+01,+1.355763E-08,+9.910000E+37,+3.438911E+03,+2.150800E+04,
-4.240000E+01,+1.759803E-08,+9.910000E+37,+3.439998E+03,+2.150800E+04,
-4.230000E+01,+1.961825E-08,+9.910000E+37,+3.441057E+03,+2.150800E+04,
-4.220000E+01,+2.163845E-08,+9.910000E+37,+3.442117E+03,+2.150800E+04,
-4.210000E+01,+2.113339E-08,+9.910000E+37,+3.443177E+03,+2.150800E+04,
-4.200000E+01,+2.214350E-08,+9.910000E+37,+3.444236E+03,+2.150800E+04,
-4.190000E+01,+2.870917E-08,+9.910000E+37,+3.445295E+03,+2.150800E+04,
-4.180000E+01,+2.971928E-08,+9.910000E+37,+3.446354E+03,+2.150800E+04,
-4.170000E+01,+3.325464E-08,+9.910000E+37,+3.447414E+03,+2.150800E+04,
-4.160000E+01,+2.618388E-08,+9.910000E+37,+3.448475E+03,+2.150800E+04,
-4.150000E+01,+3.325463E-08,+9.910000E+37,+3.449534E+03,+2.150800E+04,
-4.140000E+01,+3.527483E-08,+9.910000E+37,+3.450595E+03,+2.150800E+04,
-4.130000E+01,+3.577989E-08,+9.910000E+37,+3.451651E+03,+2.150800E+04,
-4.120000E+01,+4.083040E-08,+9.910000E+37,+3.452710E+03,+2.150800E+04,
-4.110000E+01,+3.729503E-08,+9.910000E+37,+3.453770E+03,+2.150800E+04,
-4.100000E+01,+5.042640E-08,+9.910000E+37,+3.454829E+03,+2.150800E+04

current through plasma (-mA) <tab> voltage across plasma (-V) <tab> time (sec)
3.403789	436.114575	0.001000
3.391202	437.111823	0.101000
3.397436	436.631293	0.201000
3.404473	436.019206	0.301000
3.395304	436.646276	0.401000
3.391541	436.942993	0.501000
3.401688	436.167372	0.601000
3.401787	436.116475	0.702000
3.390624	436.920302	0.801000
3.394502	436.615018	0.902000
3.403395	435.950072	1.001000
3.396181	436.450238	1.101000
3.388020	437.013830	1.201000
3.396776	436.290881	1.301000
3.402381	435.861358	1.401000
3.391827	436.644619	1.501000
3.388484	436.886856	1.601000
3.398098	436.100888	1.701000
3.397639	436.026062	1.801000
3.387193	436.770903	1.901000
3.390240	436.537042	2.001000
3.398560	435.889712	2.101000
3.392253	436.270589	2.201000
3.384948	436.790176	2.301000
3.392842	436.173693	2.401000
3.396935	435.836879	2.503000
3.385803	436.587861	2.601000
3.383960	436.652768	2.701000
3.394645	435.798408	2.801000
3.392523	435.878886	2.901000
3.380153	436.790833	3.001000
3.384469	436.408626	3.101000
3.393492	435.641181	3.201000
3.387106	436.029236	3.301000
3.378399	436.620167	3.401000
3.385906	436.006196	3.501000
3.389064	435.653105	3.601000
3.377223	436.259309	3.701000
3.371813	436.167449	3.801000
3.377957	435.324957	3.901000
3.376112	435.510588	4.001000
3.367037	436.356385	4.101000
3.374387	435.945664	4.201000
3.383813	435.310676	4.301000
3.375576	436.008683	4.401000
3.369391	436.467513	4.501000
3.379392	435.644779	4.601000
3.382063	435.321155	4.701000
3.369321	436.107034	4.801000
3.367259	436.121943	4.901000
3.375484	435.316013	5.001000
3.370203	435.315661	5.101000
3.361331	436.038558	5.201000
3.371697	435.867855	5.301000
3.385419	435.449767	5.401000
3.382462	436.182759	5.501000
3.380936	436.684915	5.601000
3.393344	436.058220	5.701000
3.398916	435.862322	5.801000
3.389606	436.732099	5.901000
3.390394	436.829005	6.001000
3.401896	436.065416	6.101000
3.400571	436.207236	6.201000
3.390331	437.023038	6.301000
3.395921	436.684696	6.401000
3.405985	436.004087	6.501000
3.399530	436.542290	6.601000
3.392441	437.118805	6.701000
3.400804	436.520579	6.801000
3.406693	436.086254	6.902000
3.397484	436.808280	7.001000
3.395315	436.981201	7.101000
3.405158	436.238700	7.201000
3.404775	436.279379	7.301000
3.395297	437.028341	7.401000
3.398891	436.837260	7.501000
3.408640	436.123164	7.601000
3.402472	436.565543	7.701000
3.395348	437.105128	7.809000
3.404756	436.452972	7.901000
3.409730	436.126112	8.001000
3.398824	436.955574	8.101000
3.396622	437.130724	8.201000
3.408313	436.261904	8.301000
3.408438	436.266844	8.401000
3.397846	437.095905	8.501000
3.400708	436.889280	8.601000
3.410224	436.164216	8.701000
3.405074	436.546030	8.801000
3.397705	437.121368	8.901000
3.405156	436.607129	9.001000
3.410405	436.215689	9.101000
3.401389	436.837842	9.201000
3.398979	437.030147	9.301000
3.409451	436.271397	9.401000
3.408496	436.373590	9.501000
3.397912	437.148939	9.601000
3.401706	436.837249	9.702000
3.411881	436.077726	9.801000
3.404982	436.566059	9.901000
3.396031	437.264753	10.001000
3.405090	436.548518	10.101000
3.411572	436.030310	10.201000
3.401297	436.782153	10.301000
3.397875	437.064369	10.403000
3.407571	436.354545	10.501000
3.407104	436.311115	10.601000
3.397655	437.004367	10.702000
3.401344	436.725093	10.801000
3.410367	436.088099	10.901000
3.402949	436.634480	11.001000
3.395905	437.151041	11.101000
3.405190	436.445829	11.201000
3.409221	436.120667	11.302000
3.398546	436.897053	11.401000
3.397404	436.987833	11.501000
3.408770	436.105696	11.601000
3.406807	436.215011	11.701000
3.395685	437.072501	11.801000
3.399470	436.806683	11.901000
3.408604	436.116512	12.001000
3.402544	436.510641	12.101000
3.395781	436.983990	12.201000
3.404093	436.367375	12.301000
3.406986	436.154847	12.401000
3.397042	436.903038	12.501000
3.396963	436.895854	12.601000
3.407653	436.085089	12.701000
3.404517	436.301134	12.801000
3.394448	437.042543	12.901000
3.400684	436.583226	13.001000
3.408360	435.991936	13.101000
3.400256	436.577247	13.201000
3.393851	437.054459	13.301000
3.404247	436.296577	13.401000
3.407616	436.025285	13.501000
3.396498	436.825731	13.601000
3.396047	436.838511	13.701000
3.406252	436.094830	13.801000
3.403503	436.296072	13.901000
3.394677	436.985053	14.001000
3.400507	436.542516	14.101000
3.407824	435.955295	14.201000
3.398790	436.600203	14.301000
3.394175	436.945459	14.401000
3.403875	436.243939	14.501000
3.405583	436.107641	14.601000
3.395680	436.817399	14.701000
3.396392	436.795087	14.801000
3.407163	436.015362	14.901000
3.402480	436.332103	15.005000
3.392638	437.047078	15.101000
3.399758	436.513635	15.201000
3.407696	435.928409	15.301000
3.399088	436.589003	15.401000
3.394491	436.962271	15.501000
3.402972	436.310293	15.601000
3.404500	436.145227	15.701000
3.394742	436.853556	15.801000
3.397374	436.701344	15.901000
3.406622	436.033273	16.001000
3.401634	436.390548	16.101000
3.393283	436.982190	16.201000
3.400822	436.448749	16.301000
3.407169	435.963209	16.401000
3.397200	436.676464	16.501000
3.393422	436.941359	16.601000
3.404521	436.083369	16.701000
3.404730	436.050118	16.801000
3.392786	436.967192	16.901000
3.394943	436.804192	17.001000
3.405319	435.968171	17.101000
3.400392	436.256872	17.201000
3.392260	436.873984	17.301000
3.399364	436.365250	17.401000
3.403710	436.036124	17.501000
3.394181	436.701454	17.601000
3.392851	436.786591	17.701000
3.403473	435.978253	17.801000
3.401511	436.122219	17.901000
3.390730	436.912753	18.001000
3.396273	436.480694	18.101000
3.404979	435.819605	18.201000
3.396681	436.446926	18.301000
3.389617	437.009391	18.401000
3.399489	436.250477	18.501000
3.403616	435.850005	18.601000
3.392853	436.628052	18.701000
3.391716	436.743096	18.801000
3.401100	436.043852	18.901000
3.398973	436.167765	19.001000
3.390048	436.792669	19.101000
3.395727	436.350487	19.201000
3.401982	435.863555	19.301000
3.393116	436.491652	19.401000
3.388322	436.850077	19.501000
3.399123	436.014019	19.601000
3.400522	435.880650	19.701000
3.389351	436.713757	19.801000
3.390501	436.644374	19.902000
3.401007	435.811326	20.001000
3.396505	436.058778	20.101000
3.386519	436.785095	20.201000
3.392778	436.348789	20.301000
3.399606	435.812811	20.401000
3.391240	436.368186	20.501000
3.386889	436.658233	20.601000
3.395751	435.934191	20.701000
3.395477	435.890566	20.801000
3.385248	436.623881	20.901000
3.388656	436.327458	21.001000
3.397386	435.607240	21.101000
3.390479	436.062529	21.201000
3.380606	436.701351	21.301000
3.387346	435.980858	21.401000
3.391072	435.427074	21.501000
3.379671	436.094612	21.601000
3.375617	436.355189	21.701000
3.387242	435.519999	21.802000
3.387393	435.600604	21.902000
3.377806	436.386725	22.001000
3.381363	436.173535	22.101000
3.390755	435.478776	22.201000
3.385727	435.882928	22.301000
3.379074	436.407970	22.401000
3.387346	435.794896	22.501000
3.391102	435.496957	22.601000
3.380259	436.276008	22.701000
3.379510	436.313652	22.801000
3.390040	435.491531	22.901000
3.387596	435.612870	23.001000
3.377092	436.352431	23.101000
3.381673	436.016004	23.201000
3.390079	435.361153	23.301000
3.382618	435.900665	23.401000
3.375026	436.414367	23.501000
3.384068	435.673566	23.601000
3.387390	435.336063	23.701000
3.377035	436.063573	23.801000
3.375304	436.156510	23.901000
3.384258	435.414592	24.001000
3.381361	435.505921	24.101000
3.371451	436.140671	24.201000
3.375547	435.677255	24.301000
3.380130	435.031359	24.401000
3.364499	435.400539	24.501000
3.354361	435.682959	24.601000
3.367524	435.023504	24.701000
3.375671	435.020257	24.801000
3.369744	436.034761	24.901000
3.375496	436.087959	25.001000
3.389787	435.377935	25.101000
3.388925	435.707100	25.201000
3.381518	436.514647	25.301000
3.389182	436.138680	25.401000
3.397409	435.610766	25.501000
3.390429	436.186759	25.601000
3.386821	436.544353	25.701000
3.396858	435.845895	25.801000
3.397142	435.824256	25.901000
3.386781	436.578363	26.001000
3.390800	436.283876	26.101000
3.400213	435.609081	26.201000
3.393738	436.135674	26.301000
3.385502	436.752608	26.405000
3.394251	436.058513	26.501000
3.399795	435.616533	26.601000
3.390028	436.371832	26.701000
3.387747	436.606405	26.801000
3.398760	435.800659	26.901000
3.397567	435.870925	27.001000
3.387668	436.614841	27.101000
3.392570	436.352146	27.201000
3.401352	435.729494	27.301000
3.394813	436.248668	27.401000
3.389371	436.695886	27.501000
3.399482	435.988442	27.601000
3.402592	435.821557	27.701000
3.391850	436.685112	27.801000
3.391947	436.720058	27.901000
3.403392	435.837638	28.001000
3.401995	435.933725	28.101000
3.391262	436.767636	28.201000
3.395597	436.541382	28.301000
3.405391	435.817112	28.401000
3.398700	436.310151	28.501000
3.392082	436.826237	28.601000
3.400758	436.203242	28.701000
3.405215	435.877990	28.801000
3.395494	436.583522	28.901000
3.394293	436.707139	29.001000
3.404886	435.933721	29.101000
3.402435	436.136363	29.201000
3.392854	436.883230	29.301000
3.398671	436.422067	29.401000
3.407142	435.762587	29.501000
3.399117	436.358146	29.601000
3.392036	436.938891	29.701000
3.402295	436.223710	29.801000
3.407242	435.861310	29.902000
3.396856	436.616900	30.001000
3.395112	436.759879	30.101000
3.405166	436.016797	30.201000
3.404161	436.087328	30.301000
3.394369	436.824741	30.401000
3.398901	436.504898	30.501000
3.407183	435.884231	30.601000
3.400373	436.399368	30.701000
3.394425	436.869894	30.801000
3.403439	436.195481	30.901000
3.406476	435.910781	31.001000
3.395961	436.701601	31.101000
3.396023	436.746670	31.201000
3.407504	435.931656	31.301000
3.404619	436.122085	31.401000
3.394118	436.878186	31.501000
3.399223	436.503399	31.601000
3.408135	435.848250	31.701000
3.400678	436.396522	31.801000
3.394313	436.871043	31.901000
3.403676	436.176694	32.001000
3.407203	435.921808	32.101000
3.396679	436.701419	32.201000
3.396151	436.757346	32.301000
3.406149	436.019597	32.401000
3.404274	436.108451	32.501000
3.394896	436.847877	32.601000
3.401216	436.413465	32.701000
3.409158	435.894282	32.801000
3.400269	436.532968	32.901000
3.394980	436.909990	33.001000
3.405236	436.139386	33.101000
3.408423	435.905312	33.202000
3.397412	436.750245	33.301000
3.396682	436.837369	33.401000
3.407937	435.975510	33.501000
3.405642	436.164451	33.601000
3.395529	436.920447	33.701000
3.401992	436.449627	33.801000
3.409492	435.865757	33.901000
3.401877	436.398863	34.001000
3.396066	436.883988	34.101000
3.405451	436.192682	34.201000
3.407136	436.078738	34.301000
3.397525	436.761442	34.401000
3.398499	436.651654	34.501000
3.409955	435.816430	34.601000
3.405242	436.187934	34.701000
3.394906	436.990291	34.801000
3.402109	436.427527	34.901000
3.410281	435.798977	35.001000
3.401777	436.403033	35.101000
3.396343	436.854550	35.201000
3.406224	436.096877	35.302000
3.407622	435.943712	35.401000
3.397475	436.684648	35.501000
3.399240	436.579424	35.601000
3.408978	435.893917	35.701000
3.403420	436.305498	35.801000
3.396237	436.796748	35.901000
3.403762	436.232338	36.001000
3.409769	435.782054	36.101000
3.399511	436.588929	36.201000
3.396340	436.832754	36.301000
3.408176	435.933930	36.401000
3.408396	435.917817	36.501000
3.396601	436.789562	36.601000
3.399309	436.602354	36.701000
3.409085	435.853828	36.801000
3.403777	436.191674	36.901000
3.395622	436.815175	37.001000
3.403967	436.220527	37.101000
3.408693	435.871831	37.201000
3.398883	436.580587	37.301000
3.397102	436.679155	37.401000
3.407593	435.879317	37.501000
3.405674	436.013282	37.601000
3.394941	436.827519	37.701000
3.400700	436.416354	37.801000
3.409353	435.760648	37.901000
3.401286	436.324663	38.001000
3.393788	436.869803	38.101000
3.404090	436.108537	38.201000
3.408491	435.747945	38.301000
3.397904	436.512577	38.401000
3.396290	436.662039	38.501000
3.406835	435.878517	38.601000
3.404490	436.056300	38.701000
3.395172	436.732510	38.801000
3.400065	436.316962	38.901000
3.408737	435.660329	39.001000
3.399363	436.341246	39.101000
3.394588	436.742411	39.201000
3.404038	436.054059	39.301000
3.406496	435.836855	39.401000
3.395290	436.652142	39.501000
3.396409	436.575592	39.601000
3.407708	435.720630	39.701000
3.402858	436.075749	39.801000
3.393081	436.792468	39.901000
3.400043	436.283119	40.001000
3.407630	435.726482	40.101000
3.399195	436.357889	40.201000
3.394536	436.706978	40.301000
3.404529	435.948332	40.401000
3.405213	435.872201	40.501000
3.395176	436.644892	40.601000
3.397422	436.512923	40.701000
3.407425	435.760718	40.801000
3.401484	436.176322	40.901000
3.393364	436.755960	41.001000
3.402358	436.095220	41.101000
3.406951	435.758754	41.201000
3.396439	436.520897	41.301000
3.393854	436.711349	41.401000
3.405387	435.849690	41.501000
3.404559	435.879402	41.601000
3.393835	436.696394	41.701000
3.396727	436.464082	41.801000
3.405768	435.732922	41.901000
3.399412	436.175494	42.001000
3.392951	436.691216	42.101000
3.401479	436.103766	42.201000
3.404681	435.814213	42.301000
3.394688	436.515186	42.401000
3.394729	436.527644	42.501000
3.405109	435.746205	42.601000
3.401663	436.022603	42.701000
3.392291	436.724173	42.801000
3.397906	436.287312	42.901000
3.406476	435.615675	43.001000
3.397740	436.285415	43.101000
3.391543	436.758113	43.201000
3.401398	435.998978	43.301000
3.405122	435.670179	43.401000
3.394553	436.477812	43.501000
3.393910	436.565586	43.601000
3.403596	435.854580	43.701000
3.400407	436.001002	43.801000
3.391710	436.609676	43.901000
3.398109	436.146717	44.001000
3.405302	435.608849	44.101000
3.395473	436.329163	44.201000
3.390969	436.647076	44.301000
3.401491	435.847264	44.401000
3.402938	435.732208	44.501000
3.391452	436.567596	44.601000
3.393068	436.454905	44.701000
3.404256	435.568404	44.801000
3.399311	435.897034	44.901000
3.389818	436.635318	45.001000
3.396476	436.178647	45.101000
3.403540	435.615918	45.201000
3.395010	436.195594	45.301000
3.391749	436.409070	45.401000
3.401292	435.708575	45.501000
3.400496	435.772442	45.601000
3.390100	436.556916	45.701000
3.394300	436.229963	45.801000
3.403942	435.496943	45.901000
3.396875	436.012009	46.001000
3.388973	436.589499	46.101000
3.398061	435.897010	46.201000
3.402933	435.492198	46.301000
3.392437	436.255758	46.401000
3.390212	436.460865	46.501000
3.400998	435.674619	46.601000
3.399734	435.704273	46.701000
3.389860	436.375479	46.801000
3.393446	436.120925	46.901000
3.401059	435.545195	47.001000
3.394004	436.058157	47.101000
3.388467	436.447187	47.201000
3.397870	435.705164	47.301000
3.400106	435.514667	47.401000
3.388634	436.346319	47.501000
3.389305	436.299311	47.601000
3.399769	435.474390	47.701000
3.396683	435.661061	47.801000
3.386090	436.446397	47.901000
3.392219	436.003241	48.001000
3.400413	435.353293	48.101000
3.391248	435.996187	48.201000
3.385046	436.420654	48.301000
3.395045	435.658836	48.401000
3.398152	435.433891	48.501000
3.387497	436.208813	48.601000
3.388216	436.155887	48.701000
3.397435	435.394672	48.802000
3.392283	435.698464	48.901000
3.382852	436.351364	49.001000
3.389527	435.788672	49.101000
3.396450	435.197314	49.201000
3.385773	435.878944	49.301000
3.380005	436.224268	49.401000
3.389531	435.396407	49.501000
3.389389	435.200525	49.601000
3.376023	435.890724	49.701000
3.374105	435.682222	49.801000
3.381057	434.766348	49.901000
3.376103	435.160200	50.001000
3.368878	435.899688	50.102000
3.376975	435.451207	50.201000
3.384402	434.973413	50.301000
3.375764	435.597694	50.402000
3.372598	435.827495	50.501000
3.381933	435.076333	50.601000
3.380127	435.027201	50.701000
3.366214	435.777753	50.801000
3.367658	435.439062	50.901000
3.379727	434.775532	51.001000
3.377195	435.254779	51.101000
3.371089	435.980911	51.201000
3.381439	435.391779	51.301000
3.387897	434.994256	51.401000
3.377625	435.787416	51.501000
3.374056	435.979602	51.601000
3.383521	435.160799	51.701000
3.383250	435.131155	51.801000
3.374364	435.877955	51.901000
3.379125	435.690096	52.001000
3.388814	435.104144	52.105000
3.382648	435.659836	52.201000
3.378060	436.124849	52.301000
3.388732	435.440706	52.401000
3.392745	435.210487	52.501000
3.382000	436.092072	52.601000
3.381944	436.097798	52.701000
3.393590	435.241312	52.801000
3.391110	435.448860	52.901000
3.380089	436.283218	53.001000
3.385448	435.833732	53.101000
3.393123	435.170391	53.201000
3.384524	435.730801	53.301000
3.378181	436.136564	53.401000
3.386203	435.394831	53.501000
3.385808	435.098014	53.601000
3.376436	435.886758	53.701000
3.386074	436.014616	53.801000
3.404656	435.599464	53.901000
3.407386	436.182875	54.001000
3.404193	437.007704	54.101000
3.417090	436.466874	54.201000
3.426451	436.077182	54.301000
3.418245	436.928036	54.402000
3.415428	437.345395	54.501000
3.427814	436.491923	54.601000
3.429393	436.422208	54.701000
3.419333	437.197869	54.801000
3.421863	437.113603	54.901000
3.432061	436.420591	55.001000
3.427311	436.797231	55.101000
3.419701	437.386308	55.201000
3.427591	436.827589	55.301000
3.432741	436.456052	55.401000
3.423883	437.143763	55.501000
3.421947	437.296241	55.601000
3.433464	436.432409	55.701000
3.432112	436.562767	55.801000
3.420810	437.461195	55.901000
3.425165	437.175125	56.001000
