Data from Helium1000V465mT_500ms_USB2G486391__0__00079.txt Node

Date: Thu Oct 21 14:46:30 EDT 2021
User: phys191
Spectrometer: USB2G48639
Scans to average: 1
Trigger mode: 4
Integration Time (sec): 5.000000E-1
Electric dark correction enabled: true
Boxcar width: 0
XAxis mode: Wavelengths
Number of Pixels in Spectrum: 651
>>>>>Begin Spectral Data<<<<<
350	1.06
351	-4.23
352	-3.22
353	1.69
354	4.71
355	6.35
356	3.5
357	15.38
358	-3.53
359	0.81
360	-4.35
361	-2.4
362	-0.21
363	0.5
364	2.83
365	-0.54
366	-2.33
367	-3.3
368	16.37
369	17.42
370	-0.86
371	24.51
372	2.02
373	1.8
374	-4.23
375	-1.19
376	1.12
377	2.64
378	-7.69
379	-4.26
380	2.82
381	-1.63
382	4.43
383	19.79
384	-3.03
385	1.6
386	2.88
387	-1.07
388	7.28
389	218.74
390	475.38
391	7.95
392	15.48
393	1.39
394	-7.65
395	-0.6
396	-0.91
397	69.67
398	48.79
399	1.43
400	-4.29
401	14.47
402	3.56
403	92.78
404	195.14
405	11.27
406	-4.58
407	6.52
408	-1.88
409	-0.47
410	-0.57
411	9.06
412	3.87
413	34.15
414	2.53
415	15.6
416	9.95
417	0.64
418	5.62
419	-1.32
420	2.99
421	4.85
422	7
423	0.8
424	-1.52
425	1.28
426	0.41
427	15.37
428	6.99
429	14.21
430	-8.2
431	-3.09
432	-0.01
433	2.32
434	2.26
435	32.69
436	8.8
437	-2.56
438	0.91
439	34.74
440	66.45
441	10.01
442	0.83
443	7.68
444	15.72
445	16.49
446	9.47
447	137.9
448	975.93
449	208.69
450	11.14
451	5.35
452	-0.35
453	-0.94
454	8.81
455	15.13
456	0.69
457	17.22
458	5.44
459	-2.39
460	1.34
461	3.82
462	-2
463	-0.88
464	2.2
465	23.85
466	11.73
467	-5.43
468	4.6
469	10.86
470	8.42
471	11.76
472	163.28
473	55.71
474	1.2
475	-2.9
476	3.17
477	-6.33
478	-2.61
479	-9.41
480	3.19
481	-5.87
482	0.12
483	0.92
484	3.57
485	0.22
486	20.75
487	113.08
488	37.37
489	17
490	13.06
491	18.46
492	92.36
493	664.03
494	207.62
495	24.66
496	21.1
497	39.39
498	13.06
499	13.74
500	15.17
501	39.64
502	2807.52
503	2256.15
504	337.54
505	106.66
506	115.42
507	23.79
508	7.89
509	5.49
510	0.54
511	1.26
512	-4.1
513	-1.42
514	3.67
515	-5.87
516	-0.43
517	-5.23
518	-11.37
519	1.55
520	7.81
521	-3.47
522	-4.61
523	-9.05
524	-2.1
525	2.83
526	4.78
527	7.86
528	-2.25
529	-2.79
530	-7.63
531	-3.62
532	1.16
533	-1.08
534	3.86
535	-0.27
536	6.98
537	4.89
538	-7.07
539	1.32
540	-9.43
541	-3.87
542	-1.67
543	-5.11
544	0.21
545	-3.48
546	-1.73
547	-7.14
548	-5.49
549	-9.09
550	-1.27
551	-5.88
552	1.36
553	-6.59
554	-0.81
555	-3.59
556	-7.59
557	2.36
558	-3.5
559	3.54
560	5.3
561	4.04
562	3.69
563	-2.43
564	1.1
565	-3.69
566	-2.23
567	8.88
568	2.12
569	1.25
570	-0.76
571	3.15
572	-5.08
573	-2.81
574	8.94
575	34.74
576	17.41
577	-2.26
578	-3
579	3.26
580	-0.17
581	-0.93
582	21.55
583	6.01
584	4.57
585	0.61
586	-1.56
587	16.94
588	1155.43
589	911.93
590	237.2
591	27.14
592	10.14
593	4.97
594	3.41
595	0.81
596	1.45
597	0.44
598	6.76
599	6.12
600	3.36
601	-3.1
602	6.09
603	-0.71
604	-1.94
605	-0.85
606	-4.83
607	-0.49
608	-2.38
609	-7.55
610	-2.62
611	-2.46
612	-0.09
613	2.25
614	12.4
615	-3.62
616	-0.46
617	8.57
618	3.44
619	-3.76
620	1.35
621	0.4
622	6.52
623	-3.62
624	-1.75
625	-4.97
626	-3.92
627	-0.39
628	-2.21
629	-3.09
630	10.65
631	-8.65
632	0.13
633	-0.24
634	-3.84
635	-7.93
636	-0.27
637	-1.12
638	1.3
639	8.27
640	-1.86
641	-5.86
642	18.82
643	-9.92
644	3.86
645	0.11
646	-1.05
647	6.06
648	-6.58
649	-10.49
650	3.03
651	4.7
652	11.51
653	17.33
654	3.35
655	-1.69
656	4.07
657	123.68
658	62.79
659	23.81
660	1.55
661	17.55
662	5.66
663	13.09
664	6.24
665	9.87
666	8.3
667	5.89
668	1020.74
669	1873.97
670	567.85
671	116.78
672	7.46
673	6.76
674	3.7
675	1.83
676	-1.07
677	-2.39
678	1.49
679	-0.11
680	5.07
681	-6.04
682	-0.95
683	-0.21
684	28.87
685	-4.01
686	-2.18
687	-3.59
688	4.22
689	9.11
690	1.76
691	1.14
692	-0.61
693	-6.71
694	5.25
695	8.11
696	10.42
697	-0.86
698	11.72
699	-6.55
700	0.06
701	2.56
702	-11.51
703	0.19
704	-8.5
705	1.81
706	-0.4
707	468.31
708	335.72
709	103.66
710	9.41
711	-11
712	-0.11
713	-4.48
714	-4.59
715	-0.58
716	-5.21
717	-0.79
718	3.98
719	-9.16
720	-5.04
721	-0.37
722	0.96
723	0.49
724	3.53
725	24.29
726	5.7
727	5.76
728	59.23
729	337.63
730	154
731	30.09
732	-5.93
733	1.82
734	0.64
735	-2.18
736	-4.91
737	-6.28
738	-5.48
739	-7.14
740	-2.32
741	-0.23
742	1.3
743	23.44
744	-3.7
745	0.67
746	-3.52
747	-3.44
748	-9.11
749	0.12
750	-12.32
751	-17.15
752	-1.54
753	-3.76
754	-5.55
755	-6.89
756	0.27
757	-0.31
758	-4.29
759	-2.92
760	9.23
761	-6.22
762	-4.34
763	30.15
764	-10.21
765	-7.64
766	3.6
767	-5.25
768	-2.57
769	-1.57
770	0.33
771	-4.22
772	2.51
773	-1.8
774	-2.38
775	2.15
776	-6.34
777	-4.42
778	19.78
779	3.82
780	-1.09
781	-8.54
782	0.03
783	-3.79
784	-4.23
785	-2.58
786	-5.59
787	-3.13
788	13.36
789	-0.05
790	-2.84
791	-8.9
792	6.55
793	13.3
794	-11.51
795	-4.64
796	-1.58
797	24.56
798	2.26
799	-2.82
800	-6.91
801	-8.41
802	14.14
803	-0.33
804	-0.02
805	-2.19
806	-4.45
807	-6.08
808	3.34
809	-5.14
810	-5.1
811	-6.64
812	-5.55
813	-7.66
814	-1.31
815	-8.06
816	3.77
817	-2.84
818	-8.93
819	-2.06
820	-4.99
821	7.3
822	-7.46
823	-6.63
824	-0.36
825	-4.7
826	-1.91
827	1.94
828	-1.31
829	1.4
830	-4.83
831	0.17
832	-1.05
833	-5.75
834	-5.55
835	0.71
836	-2.1
837	-1.84
838	-5.34
839	7.52
840	-9
841	-4.34
842	-6.35
843	-4.36
844	-3.05
845	5.45
846	13.28
847	-3.45
848	2.77
849	-3.79
850	-11.08
851	-8.06
852	-4.61
853	-8.5
854	0.66
855	-4.28
856	-4.53
857	-6.59
858	-8.81
859	-4.83
860	-8.04
861	-9.06
862	-1.91
863	-7.41
864	-0.14
865	-5.67
866	-0.98
867	-7.68
868	-1.78
869	-7.97
870	-4.91
871	-3.96
872	-7.34
873	-3.48
874	-0.99
875	-2.3
876	-8.88
877	-5.79
878	-1.1
879	-3.93
880	0.45
881	-3.62
882	2.01
883	-3.98
884	-5.77
885	-8.3
886	-6.66
887	-7
888	-4.5
889	2.55
890	20.15
891	-11.17
892	-5.53
893	-4.36
894	-6.05
895	-8.04
896	-8.89
897	0.35
898	-3.63
899	-6.41
900	7.77
901	-8.26
902	-3.73
903	-4.33
904	-1.48
905	-0.02
906	-6.96
907	-5.92
908	-8.79
909	-3.22
910	-6.72
911	-1.67
912	-5.19
913	-12.42
914	-3.74
915	-5.12
916	-6.75
917	-3.83
918	-7.44
919	-2.84
920	-7.25
921	-12.55
922	-11.41
923	-2.4
924	-13.62
925	-5.62
926	-5.44
927	-5.2
928	-3.7
929	-4.06
930	-2.13
931	28.01
932	-5.01
933	-7.34
934	-11.69
935	-8.3
936	-1.89
937	-6.58
938	-15.14
939	2.29
940	-9.48
941	-12.33
942	-9.82
943	-8.9
944	1.47
945	-9.05
946	1.3
947	-1.31
948	-1.5
949	-3.73
950	-6.64
951	-5.53
952	-0.5
953	-6.54
954	-10.05
955	-1.13
956	-5.34
957	-2.8
958	18.99
959	-6.98
960	-10.67
961	-8.99
962	0.8
963	-3.04
964	-5.46
965	-3.2
966	-8.12
967	-3.83
968	-3.44
969	-8.32
970	-6.04
971	-9.04
972	-2.61
973	3.59
974	-6.62
975	-4.49
976	3.38
977	-5.53
978	-6.85
979	-1.72
980	-2.42
981	-7.66
982	-1.95
983	-15.85
984	-1.46
985	1.24
986	-11.84
987	-4.1
988	-4.55
989	-7.69
990	-4.75
991	-3.09
992	-0.93
993	0.6
994	-3.79
995	3.87
996	2.73
997	-2.86
998	-3.29
999	-9.47
1000	-0.9
