probe voltage (V), probe current (A), resistance (9.9e37 if not enabled) , timestamp , status word ,
-6.600000E+01,-8.139821E-08,+9.910000E+37,+1.085028E+04,+2.150800E+04,
-6.590000E+01,-7.331676E-08,+9.910000E+37,+1.085134E+04,+2.150800E+04,
-6.580000E+01,-7.180148E-08,+9.910000E+37,+1.085240E+04,+2.150800E+04,
-6.570000E+01,-6.675061E-08,+9.910000E+37,+1.085346E+04,+2.150800E+04,
-6.560000E+01,-6.675060E-08,+9.910000E+37,+1.085451E+04,+2.150800E+04,
-6.550000E+01,-6.169975E-08,+9.910000E+37,+1.085557E+04,+2.150800E+04,
-6.540000E+01,-5.967937E-08,+9.910000E+37,+1.085663E+04,+2.150800E+04,
-6.530000E+01,-6.270989E-08,+9.910000E+37,+1.085770E+04,+2.150800E+04,
-6.520000E+01,-5.210305E-08,+9.910000E+37,+1.085876E+04,+2.150800E+04,
-6.510000E+01,-4.856741E-08,+9.910000E+37,+1.085982E+04,+2.150800E+04,
-6.500000E+01,-5.159798E-08,+9.910000E+37,+1.086087E+04,+2.150800E+04,
-6.490000E+01,-4.957758E-08,+9.910000E+37,+1.086193E+04,+2.150800E+04,
-6.480000E+01,-4.755723E-08,+9.910000E+37,+1.086301E+04,+2.150800E+04,
-6.470000E+01,-4.402163E-08,+9.910000E+37,+1.086407E+04,+2.150800E+04,
-6.460000E+01,-4.503181E-08,+9.910000E+37,+1.086513E+04,+2.150800E+04,
-6.450000E+01,-3.796059E-08,+9.910000E+37,+1.086619E+04,+2.150800E+04,
-6.440000E+01,-3.240455E-08,+9.910000E+37,+1.086725E+04,+2.150800E+04,
-6.430000E+01,-3.796052E-08,+9.910000E+37,+1.086831E+04,+2.150800E+04,
-6.420000E+01,-2.533332E-08,+9.910000E+37,+1.086938E+04,+2.150800E+04,
-6.410000E+01,-2.331296E-08,+9.910000E+37,+1.087044E+04,+2.150800E+04,
-6.400000E+01,-2.179770E-08,+9.910000E+37,+1.087150E+04,+2.150800E+04,
-6.390000E+01,-1.876715E-08,+9.910000E+37,+1.087255E+04,+2.150800E+04,
-6.380000E+01,-2.078751E-08,+9.910000E+37,+1.087361E+04,+2.150800E+04,
-6.370000E+01,-1.977734E-08,+9.910000E+37,+1.087467E+04,+2.150800E+04,
-6.360000E+01,-1.624170E-08,+9.910000E+37,+1.087573E+04,+2.150800E+04,
-6.350000E+01,-1.573662E-08,+9.910000E+37,+1.087680E+04,+2.150800E+04,
-6.340000E+01,-1.321118E-08,+9.910000E+37,+1.087787E+04,+2.150800E+04,
-6.330000E+01,-5.634838E-09,+9.910000E+37,+1.087894E+04,+2.150800E+04,
-6.320000E+01,-2.604303E-09,+9.910000E+37,+1.087999E+04,+2.150800E+04,
-6.310000E+01,-5.129747E-09,+9.910000E+37,+1.088105E+04,+2.150800E+04,
-6.300000E+01,-3.614482E-09,+9.910000E+37,+1.088211E+04,+2.150800E+04,
-6.290000E+01,+2.446438E-09,+9.910000E+37,+1.088317E+04,+2.150800E+04,
-6.280000E+01,+8.001859E-09,+9.910000E+37,+1.088423E+04,+2.150800E+04,
-6.270000E+01,+3.961552E-09,+9.910000E+37,+1.088530E+04,+2.150800E+04,
-6.260000E+01,+9.516975E-09,+9.910000E+37,+1.088635E+04,+2.150800E+04,
-6.250000E+01,+1.153712E-08,+9.910000E+37,+1.088741E+04,+2.150800E+04,
-6.240000E+01,+1.759760E-08,+9.910000E+37,+1.088847E+04,+2.150800E+04,
-6.230000E+01,+1.406232E-08,+9.910000E+37,+1.088953E+04,+2.150800E+04,
-6.220000E+01,+1.911270E-08,+9.910000E+37,+1.089059E+04,+2.150800E+04,
-6.210000E+01,+1.557743E-08,+9.910000E+37,+1.089167E+04,+2.150800E+04,
-6.200000E+01,+1.911269E-08,+9.910000E+37,+1.089273E+04,+2.150800E+04,
-6.190000E+01,+2.062782E-08,+9.910000E+37,+1.089381E+04,+2.150800E+04,
-6.180000E+01,+2.365804E-08,+9.910000E+37,+1.089487E+04,+2.150800E+04,
-6.170000E+01,+2.062782E-08,+9.910000E+37,+1.089593E+04,+2.150800E+04,
-6.160000E+01,+2.113286E-08,+9.910000E+37,+1.089701E+04,+2.150800E+04,
-6.150000E+01,+2.264797E-08,+9.910000E+37,+1.089807E+04,+2.150800E+04,
-6.140000E+01,+2.416307E-08,+9.910000E+37,+1.089913E+04,+2.150800E+04,
-6.130000E+01,+3.577894E-08,+9.910000E+37,+1.090019E+04,+2.150800E+04,
-6.120000E+01,+3.173865E-08,+9.910000E+37,+1.090125E+04,+2.150800E+04,
-6.110000E+01,+2.971849E-08,+9.910000E+37,+1.090233E+04,+2.150800E+04,
-6.100000E+01,+3.224369E-08,+9.910000E+37,+1.090339E+04,+2.150800E+04,
-6.090000E+01,+3.022355E-08,+9.910000E+37,+1.090447E+04,+2.150800E+04,
-6.080000E+01,+2.971851E-08,+9.910000E+37,+1.090553E+04,+2.150800E+04,
-6.070000E+01,+3.072858E-08,+9.910000E+37,+1.090659E+04,+2.150800E+04,
-6.060000E+01,+4.183942E-08,+9.910000E+37,+1.090765E+04,+2.150800E+04,
-6.050000E+01,+3.628400E-08,+9.910000E+37,+1.090873E+04,+2.150800E+04,
-6.040000E+01,+3.779911E-08,+9.910000E+37,+1.090979E+04,+2.150800E+04,
-6.030000E+01,+3.830415E-08,+9.910000E+37,+1.091086E+04,+2.150800E+04,
-6.020000E+01,+4.941500E-08,+9.91000


current through plasma (-mA) <tab> voltage across plasma (-V) <tab> time (sec)
3.826588	382.538350	0.002000
3.824182	382.699462	0.102000
3.827523	382.451945	0.202000
3.831346	382.159124	0.302000
3.831998	382.130997	0.402000
3.829609	382.297519	0.502000
3.825879	382.616954	0.604000
3.823923	382.782835	0.702000
3.826745	382.585680	0.802000
3.831127	382.229643	0.902000
3.832272	382.103033	1.002000
3.830115	382.285300	1.102000
3.826867	382.507743	1.202000
3.825105	382.665638	1.302000
3.826376	382.603688	1.402000
3.829821	382.346053	1.502000
3.832934	382.100357	1.602000
3.831532	382.189171	1.702000
3.826650	382.557386	1.802000
3.824507	382.723941	1.902000
3.826710	382.549425	2.002000
3.830288	382.274418	2.102000
3.831946	382.197151	2.202000
3.831177	382.206195	2.302000
3.828228	382.412908	2.402000
3.824805	382.698149	2.502000
3.825152	382.681417	2.602000
3.829422	382.367889	2.702000
3.832590	382.095436	2.802000
3.831703	382.171529	2.902000
3.828190	382.454511	3.002000
3.825306	382.671574	3.102000
3.825094	382.695418	3.202000
3.828244	382.484403	3.302000
3.831993	382.180008	3.402000
3.831979	382.187502	3.502000
3.828730	382.413440	3.602000
3.825468	382.633620	3.702000
3.825073	382.660598	3.802000
3.828307	382.435024	3.902000
3.831149	382.214276	4.002000
3.832448	382.094384	4.102000
3.829668	382.312650	4.202000
3.825656	382.645635	4.302000
3.824275	382.728458	4.402000
3.827845	382.466731	4.502000
3.831927	382.156406	4.602000
3.832580	382.091956	4.702000
3.829712	382.334274	4.802000
3.826819	382.510318	4.902000
3.825511	382.684832	5.002000
3.826808	382.583708	5.102000
3.830583	382.303758	5.202000
3.833039	382.080291	5.302000
3.830860	382.267447	5.402000
3.826823	382.557091	5.502000
3.825293	382.688373	5.602000
3.826942	382.537011	5.702000
3.830402	382.342139	5.802000
3.832376	382.165518	5.902000
3.831371	382.244717	6.002000
3.827153	382.559015	6.102000
3.824701	382.760416	6.202000
3.826499	382.622671	6.302000
3.830535	382.292282	6.402000
3.832510	382.161888	6.502000
3.831420	382.221968	6.602000
3.828781	382.406329	6.702000
3.825585	382.675866	6.802000
3.825149	382.703112	6.902000
3.829408	382.375241	7.002000
3.832944	382.114607	7.102000
3.832436	382.153468	7.202000
3.828677	382.425779	7.302000
3.826003	382.622226	7.402000
3.826100	382.637491	7.502000
3.828348	382.522121	7.602000
3.831810	382.226032	7.702000
3.832720	382.111043	7.802000
3.829747	382.364220	7.902000
3.825971	382.635489	8.002000
3.824994	382.724369	8.102000
3.828307	382.481573	8.202000
3.831929	382.214807	8.302000
3.832886	382.131472	8.402000
3.830428	382.330210	8.502000
3.827041	382.594965	8.602000
3.825180	382.757454	8.702000
3.827490	382.568206	8.802000
3.831305	382.283242	8.903000
3.833207	382.127080	9.002000
3.831189	382.252071	9.102000
3.828305	382.481291	9.202000
3.826031	382.691960	9.302000
3.826499	382.654452	9.402000
3.830208	382.350648	9.502000
3.833436	382.107291	9.602000
3.832723	382.129085	9.702000
3.827975	382.523501	9.802000
3.825616	382.662156	9.902000
3.826946	382.588964	10.002000
3.830168	382.342803	10.102000
3.832165	382.216412	10.202000
3.832564	382.170513	10.302000
3.829453	382.393956	10.402000
3.825771	382.659709	10.502000
3.825237	382.728623	10.602000
3.829321	382.393812	10.702000
3.833045	382.132108	10.802000
3.832958	382.117324	10.902000
3.829490	382.425694	11.002000
3.826243	382.649562	11.102000
3.825822	382.727136	11.202000
3.828416	382.519773	11.302000
3.832201	382.193824	11.402000
3.833290	382.097470	11.502000
3.829826	382.340571	11.602000
3.826718	382.586804	11.702000
3.826014	382.643095	11.803000
3.827944	382.524861	11.902000
3.831367	382.282565	12.002000
3.833124	382.110052	12.102000
3.831512	382.231357	12.202000
3.826827	382.571823	12.302000
3.824751	382.730005	12.402000
3.827736	382.508735	12.502000
3.831892	382.189669	12.602000
3.832743	382.141812	12.702000
3.830805	382.297904	12.802000
3.828027	382.501728	12.902000
3.825571	382.718327	13.002000
3.826527	382.653270	13.102000
3.830182	382.338929	13.202000
3.833639	382.068695	13.302000
3.831976	382.178631	13.402000
3.827780	382.512661	13.502000
3.825517	382.701292	13.602000
3.826815	382.613848	13.702000
3.829953	382.398058	13.802000
3.832564	382.198511	13.902000
3.832489	382.177371	14.002000
3.829176	382.403636	14.102000
3.825637	382.689871	14.202000
3.826238	382.647414	14.302000
3.829631	382.418320	14.402000
3.832714	382.182695	14.502000
3.832827	382.149862	14.602000
3.830037	382.359594	14.702000
3.826669	382.626449	14.802000
3.825565	382.699156	14.902000
3.828922	382.460249	15.002000
3.833130	382.098480	15.102000
3.833337	382.065880	15.202000
3.830118	382.329385	15.302000
3.827164	382.576089	15.402000
3.826353	382.671421	15.502000
3.827882	382.562085	15.602000
3.831244	382.325107	15.702000
3.833923	382.072481	15.802000
3.832045	382.209402	15.902000
3.827695	382.539963	16.002000
3.825707	382.720710	16.102000
3.827818	382.586668	16.202000
3.831458	382.315732	16.302000
3.833246	382.162634	16.402000
3.832071	382.252860	16.502000
3.828834	382.482906	16.602000
3.825855	382.733940	16.702000
3.827010	382.638670	16.802000
3.830921	382.321402	16.902000
3.833657	382.110213	17.002000
3.832431	382.212747	17.102000
3.829254	382.477136	17.202000
3.826693	382.682320	17.302000
3.826597	382.690175	17.402000
3.830107	382.406725	17.502000
3.833689	382.116995	17.602000
3.833642	382.099652	17.702000
3.829651	382.432821	17.802000
3.826873	382.650302	17.902000
3.827200	382.639790	18.002000
3.829346	382.470915	18.102000
3.832250	382.304113	18.202000
3.833776	382.113266	18.302000
3.831365	382.329017	18.402000
3.826915	382.655043	18.502000
3.825944	382.734899	18.602000
3.829434	382.456428	18.702000
3.833064	382.162379	18.802000
3.833289	382.194319	18.902000
3.831190	382.335004	19.002000
3.827840	382.604103	19.102000
3.825995	382.760877	19.202000
3.828093	382.574178	19.302000
3.831847	382.268561	19.402000
3.833901	382.110295	19.502000
3.832134	382.240421	19.602000
3.828575	382.500319	19.702000
3.826628	382.648448	19.802000
3.827227	382.642825	19.902000
3.830750	382.369036	20.002000
3.833741	382.149736	20.102000
3.833409	382.151616	20.202000
3.829501	382.431055	20.302000
3.826052	382.698890	20.402000
3.827464	382.576148	20.502000
3.830527	382.390502	20.602000
3.832744	382.241970	20.702000
3.833113	382.183484	20.802000
3.830590	382.365480	20.902000
3.827578	382.605789	21.002000
3.826104	382.725375	21.102000
3.829137	382.472844	21.202000
3.833360	382.150531	21.302000
3.833501	382.150996	21.402000
3.831010	382.364652	21.502000
3.828117	382.567957	21.602000
3.826773	382.702730	21.702000
3.828183	382.605153	21.802000
3.831971	382.315606	21.902000
3.834304	382.108961	22.002000
3.831938	382.280119	22.102000
3.828473	382.553405	22.202000
3.826683	382.679768	22.302000
3.828380	382.583243	22.402000
3.831475	382.354054	22.502000
3.834106	382.144728	22.602000
3.833363	382.187650	22.702000
3.829501	382.508800	22.802000
3.826525	382.712383	22.902000
3.828101	382.575200	23.002000
3.831551	382.313122	23.102000
3.833651	382.150135	23.202000
3.832708	382.216948	23.302000
3.830653	382.370426	23.402000
3.827633	382.631194	23.502000
3.826231	382.746292	23.602000
3.829411	382.492850	23.702000
3.833693	382.130211	23.802000
3.833766	382.123268	23.902000
3.829971	382.422221	24.002000
3.827209	382.623018	24.102000
3.827189	382.644146	24.202000
3.828762	382.545627	24.302000
3.831862	382.329004	24.402000
3.833530	382.175128	24.502000
3.831703	382.280417	24.602000
3.827540	382.633042	24.702000
3.826407	382.708444	24.802000
3.828608	382.519699	24.902000
3.832362	382.269831	25.002000
3.834183	382.120973	25.102000
3.832502	382.241970	25.202000
3.828834	382.532542	25.302000
3.825931	382.756387	25.402000
3.827824	382.585556	25.502000
3.831792	382.281455	25.602000
3.833948	382.107883	25.702000
3.832898	382.168311	25.802000
3.830139	382.418780	25.902000
3.827440	382.596924	26.002000
3.826842	382.704223	26.102000
3.829936	382.462693	26.202000
3.833702	382.189669	26.302000
3.834199	382.119620	26.402000
3.830241	382.415569	26.502000
3.827313	382.619565	26.602000
3.827676	382.612522	26.702000
3.829654	382.487117	26.802000
3.832723	382.250341	26.902000
3.833985	382.166259	27.002000
3.832480	382.252361	27.102000
3.828299	382.568740	27.202000
3.826647	382.692742	27.302000
3.828591	382.580984	27.402000
3.832156	382.290860	27.502000
3.833786	382.165125	27.602000
3.832779	382.229608	27.702000
3.829422	382.480139	27.802000
3.826936	382.681478	27.902000
3.827686	382.635122	28.002000
3.831387	382.353461	28.102000
3.833722	382.191913	28.202000
3.832809	382.211078	28.302000
3.830520	382.387591	28.402000
3.827826	382.594087	28.502000
3.826871	382.681633	28.602000
3.829716	382.462138	28.702000
3.833429	382.184798	28.802000
3.834645	382.065689	28.902000
3.830672	382.373888	29.002000
3.827358	382.632160	29.102000
3.827287	382.623866	29.202000
3.829338	382.486098	29.302000
3.832468	382.254989	29.402000
3.833865	382.159518	29.502000
3.832479	382.254415	29.602000
3.828581	382.559201	29.702000
3.826261	382.759372	29.802000
3.828224	382.586396	29.902000
3.831727	382.337226	30.002000
3.834050	382.109547	30.102000
3.832973	382.196097	30.202000
3.829923	382.396305	30.302000
3.826908	382.696520	30.402000
3.827129	382.672972	30.502000
3.830604	382.413553	30.602000
3.833948	382.173361	30.702000
3.832952	382.205506	30.802000
3.830634	382.368350	30.902000
3.827863	382.579334	31.002000
3.826764	382.672671	31.102000
3.828935	382.503221	31.202000
3.833238	382.207744	31.302000
3.834930	382.042281	31.402000
3.831482	382.306050	31.502000
3.827958	382.581623	31.602000
3.826891	382.676602	31.702000
3.828743	382.534418	31.802000
3.831833	382.295615	31.902000
3.834140	382.075876	32.002000
3.833521	382.162435	32.102000
3.830000	382.432308	32.202000
3.826455	382.741441	32.302000
3.827734	382.631776	32.402000
3.831278	382.368091	32.502000
3.833775	382.168155	32.602000
3.833347	382.201154	32.702000
3.830727	382.359923	32.802000
3.827710	382.599864	32.902000
3.826944	382.677594	33.002000
3.830046	382.450670	33.102000
3.833500	382.182667	33.202000
3.833662	382.164954	33.302000
3.831073	382.340349	33.402000
3.828179	382.553850	33.502000
3.826890	382.663489	33.602000
3.828724	382.523946	33.702000
3.832944	382.187994	33.802000
3.834577	382.062336	33.902000
3.832163	382.243949	34.002000
3.827844	382.574385	34.102000
3.826510	382.716619	34.202000
3.828759	382.533740	34.302000
3.831480	382.306283	34.402000
3.833440	382.123280	34.502000
3.833293	382.130834	34.602000
3.829860	382.381559	34.702000
3.826356	382.666523	34.802000
3.827092	382.623639	34.902000
3.830941	382.357848	35.002000
3.833652	382.135111	35.102000
3.832759	382.209684	35.202000
3.829935	382.382776	35.302000
3.827526	382.589213	35.402000
3.826489	382.663704	35.502000
3.829745	382.414874	35.602000
3.833128	382.182261	35.702000
3.833748	382.126434	35.802000
3.831156	382.322282	35.902000
3.827913	382.600975	36.002000
3.826148	382.721347	36.102000
3.828453	382.565925	36.202000
3.832024	382.222305	36.302000
3.834504	382.027233	36.402000
3.832288	382.191743	36.502000
3.828028	382.562159	36.602000
3.826178	382.689039	36.702000
3.828312	382.549103	36.802000
3.830949	382.345461	36.902000
3.833431	382.140701	37.002000
3.832840	382.141988	37.102000
3.830047	382.357430	37.202000
3.826110	382.660262	37.302000
3.826459	382.676380	37.402000
3.830741	382.341843	37.502000
3.833916	382.132581	37.602000
3.833100	382.210627	37.702000
3.829605	382.469472	37.802000
3.827439	382.626951	37.902000
3.826862	382.673021	38.002000
3.829486	382.443280	38.102000
3.832944	382.201833	38.202000
3.834335	382.075159	38.302000
3.831454	382.291675	38.402000
3.828003	382.572385	38.502000
3.826652	382.695483	38.602000
3.828587	382.565275	38.702000
3.832016	382.277676	38.802000
3.834365	382.085549	38.902000
3.832168	382.234176	39.002000
3.828251	382.530686	39.102000
3.826258	382.686010	39.202000
3.828264	382.552686	39.302000
3.831623	382.294577	39.402000
3.833386	382.151026	39.502000
3.833054	382.177493	39.602000
3.830371	382.389687	39.702000
3.826844	382.659478	39.802000
3.827158	382.644154	39.902000
3.830804	382.361347	40.002000
3.833872	382.110961	40.102000
3.833379	382.144385	40.202000
3.829933	382.421986	40.302000
3.827774	382.610448	40.402000
3.827188	382.663418	40.502000
3.829698	382.482584	40.602000
3.833572	382.147246	40.702000
3.834233	382.124678	40.802000
3.831466	382.296697	40.902000
3.827923	382.568560	41.002000
3.826946	382.683728	41.102000
3.829638	382.489177	41.202000
3.832484	382.270787	41.302000
3.834259	382.120848	41.402000
3.832119	382.283307	41.502000
3.828284	382.575570	41.602000
3.826461	382.700911	41.702000
3.829041	382.505504	41.802000
3.832698	382.256045	41.902000
3.834203	382.118435	42.002000
3.832731	382.231191	42.102000
3.829725	382.473921	42.202000
3.826979	382.683766	42.302000
3.827683	382.598703	42.402000
3.831468	382.317434	42.502000
3.834802	382.041507	42.602000
3.833430	382.145469	42.702000
3.829130	382.513058	42.802000
3.827132	382.680460	42.902000
3.827848	382.620243	43.002000
3.830404	382.431931	43.102000
3.833573	382.158304	43.202000
3.833707	382.135282	43.302000
3.830827	382.315502	43.402000
3.826819	382.660909	43.502000
3.826981	382.640007	43.602000
3.830100	382.440761	43.702000
3.833088	382.209832	43.802000
3.833495	382.156777	43.902000
3.831289	382.349224	44.002000
3.827758	382.579852	44.102000
3.826347	382.727315	44.202000
3.828821	382.535781	44.302000
3.833326	382.137848	44.402000
3.834080	382.082474	44.502000
3.831744	382.269231	44.602000
3.828819	382.508540	44.702000
3.827408	382.640152	44.802000
3.827758	382.626676	44.902000
3.831494	382.325903	45.002000
3.834556	382.061626	45.102000
3.833459	382.128182	45.202000
3.828915	382.482436	45.302000
3.826867	382.657709	45.402000
3.828368	382.540123	45.502000
3.831159	382.371296	45.602000
3.833262	382.186391	45.702000
3.833577	382.159195	45.802000
3.830951	382.356737	45.902000
3.827373	382.634013	46.002000
3.826975	382.674824	46.102000
3.830304	382.392257	46.202000
3.833880	382.136365	46.302000
3.834008	382.119345	46.402000
3.831408	382.322300	46.502000
3.828522	382.554110	46.602000
3.826852	382.740459	46.702000
3.829652	382.490352	46.802000
3.833231	382.211758	46.902000
3.834537	382.091660	47.002000
3.832077	382.246012	47.102000
3.829110	382.501578	47.202000
3.827560	382.634524	47.302000
3.828422	382.599928	47.402000
3.831440	382.351165	47.502000
3.834975	382.087105	47.602000
3.833719	382.146462	47.703000
3.829633	382.459882	47.802000
3.827861	382.546125	47.902000
3.828371	382.578162	48.002000
3.832031	382.293098	48.102000
3.833622	382.186983	48.202000
3.833583	382.157616	48.302000
3.831244	382.330835	48.402000
3.827458	382.642379	48.502000
3.826734	382.701429	48.602000
3.830332	382.385232	48.702000
3.833850	382.109587	48.802000
3.833757	382.120773	48.902000
3.831067	382.343003	49.002000
3.827952	382.576356	49.102000
3.827106	382.676146	49.202000
3.829248	382.521970	49.302000
3.833022	382.208943	49.402000
3.833913	382.145508	49.502000
3.831250	382.309828	49.602000
3.828177	382.526366	49.702000
3.827138	382.619856	49.802000
3.828854	382.487708	49.902000
3.831622	382.321790	50.002000
3.834302	382.106209	50.102000
3.832791	382.170874	50.202000
3.828812	382.497562	50.302000
3.826303	382.669490	50.402000
3.828493	382.503739	50.502000
3.832056	382.221438	50.602000
3.833593	382.128047	50.702000
3.832654	382.174091	50.802000
3.829919	382.407244	50.902000
3.827274	382.644233	51.002000
3.827140	382.638370	51.102000
3.830762	382.395768	51.202000
3.834195	382.063275	51.302000
3.833481	382.120466	51.402000
3.829800	382.400280	51.502000
3.827160	382.656970	51.602000
3.827254	382.634384	51.702000
3.830420	382.390495	51.802000
3.833365	382.188335	51.902000
3.833936	382.129811	52.002000
3.830700	382.329153	52.102000
3.827344	382.591061	52.202000
3.827430	382.597810	52.302000
3.829761	382.405939	52.402000
3.832836	382.177890	52.502000
3.833879	382.096215	52.602000
3.831882	382.249463	52.702000
3.827922	382.525774	52.802000
3.825852	382.712383	52.902000
3.828805	382.451486	53.002000
3.832887	382.156827	53.102000
3.833763	382.080404	53.202000
3.831339	382.235334	53.302000
3.828527	382.496245	53.402000
3.827312	382.574000	53.502000
3.827588	382.615195	53.602000
3.831332	382.299905	53.702000
3.834041	382.058694	53.802000
3.832835	382.126434	53.902000
3.828725	382.456025	54.002000
3.826333	382.636094	54.102000
3.827723	382.550348	54.202000
3.831490	382.269159	54.302000
3.833762	382.130093	54.402000
3.833275	382.152036	54.502000
3.829722	382.400083	54.602000
3.826631	382.655489	54.702000
3.826910	382.626586	54.802000
3.830605	382.316799	54.902000
3.833156	382.154135	55.002000
3.833407	382.103922	55.102000
3.830992	382.296193	55.202000
3.827879	382.531033	55.302000
3.826233	382.689936	55.402000
3.829161	382.458768	55.502000
3.833333	382.110180	55.602000
3.834188	382.024468	55.702000
3.830892	382.278121	55.802000
3.827884	382.483695	55.902000
3.826984	382.573466	56.002000
3.828629	382.481303	56.102000
3.831526	382.271746	56.202000
3.833838	382.096882	56.302000
3.832496	382.174461	56.402000
3.828269	382.509208	56.502000
3.825892	382.661402	56.602000
3.827873	382.501135	56.702000
3.831497	382.247926	56.802000
3.833108	382.110679	56.902000
3.832649	382.130582	57.002000
3.829570	382.411891	57.102000
3.826513	382.625643	57.202000
3.827164	382.590001	57.302000
3.830454	382.348127	57.402000
3.833199	382.143994	57.502000
3.833003	382.128286	57.602000
3.830320	382.313783	57.702000
3.827149	382.578593	57.802000
3.826687	382.618158	57.902000
3.829158	382.452542	58.002000
3.833545	382.117124	58.102000
3.833594	382.074284	58.202000
3.830350	382.351833	58.302000
3.827530	382.515482	58.402000
3.827259	382.530049	58.502000
3.828651	382.460696	58.602000
3.831586	382.237871	58.702000
3.833802	382.050977	58.802000
3.832132	382.181945	58.902000
3.827940	382.493264	59.002000
3.826017	382.656009	59.102000
3.828241	382.485580	59.202000
3.831635	382.229154	59.302000
3.833407	382.087807	59.402000
3.832481	382.137766	59.502000
3.829542	382.384078	59.602000
3.826511	382.646526	59.702000
3.827338	382.607723	59.802000
3.830743	382.331915	59.902000
3.833698	382.106533	60.002000
3.832752	382.141080	60.102000
3.829904	382.356335	60.202000
3.827105	382.575897	60.302000
3.826854	382.581704	60.402000
3.829698	382.401293	60.502000
3.833380	382.095104	60.602000
3.834048	382.058397	60.702000
3.830288	382.351520	60.802000
3.827024	382.560739	60.902000
3.827259	382.567925	61.002000
3.829520	382.377686	61.102000
3.831898	382.194278	61.202000
3.833908	382.027016	61.302000
3.832436	382.136958	61.402000
3.828493	382.456543	61.502000
3.826085	382.698382	61.602000
3.828176	382.510762	61.702000
3.832218	382.211081	61.802000
3.833919	382.065774	61.902000
3.832051	382.178018	62.002000
3.829057	382.408917	62.102000
3.827055	382.552684	62.202000
3.827295	382.572148	62.302000
3.830739	382.323041	62.402000
3.833658	382.119874	62.502000
3.832531	382.169327	62.602000
3.829006	382.411200	62.702000
3.826940	382.580896	62.802000
3.827007	382.572740	62.902000
3.830008	382.355446	63.002000
3.833227	382.100817	63.102000
3.834057	382.018912	63.202000
3.829931	382.353816	63.302000
3.826675	382.585150	63.402000
3.826810	382.580116	63.502000
3.829533	382.373855	63.602000
3.832388	382.141914	63.702000
3.833287	382.060546	63.802000
3.831597	382.179539	63.902000
3.827499	382.504335	64.002000
3.825764	382.684781	64.102000
3.828252	382.467399	64.202000
3.832276	382.173318	64.302000
3.833751	382.071015	64.402000
3.831659	382.227736	64.502000
3.828653	382.424920	64.602000
3.826752	382.565686	64.702000
3.827782	382.498127	64.802000
3.830939	382.293530	64.902000
3.834108	382.038740	65.002000
3.832901	382.100958	65.102000
3.828608	382.457471	65.202000
3.826012	382.631875	65.302000
3.826839	382.579704	65.402000
3.829553	382.369963	65.502000
3.833222	382.061465	65.602000
3.833612	382.030815	65.702000
3.829970	382.320718	65.802000
3.826018	382.635860	65.902000
3.826437	382.596732	66.002000
