probe voltage (V), probe current (A), resistance (9.9e37 if not enabled) , timestamp , status word ,
-4.000000E+01,-9.958355E-08,+9.910000E+37,+3.465693E+03,+2.150800E+04,
-3.990000E+01,-7.028776E-08,+9.910000E+37,+3.466752E+03,+2.150800E+04,
-3.980000E+01,-5.614497E-08,+9.910000E+37,+3.467813E+03,+2.150800E+04,
-3.970000E+01,-4.907355E-08,+9.910000E+37,+3.468873E+03,+2.150800E+04,
-3.960000E+01,-4.654808E-08,+9.910000E+37,+3.469932E+03,+2.150800E+04,
-3.950000E+01,-4.301238E-08,+9.910000E+37,+3.470991E+03,+2.150800E+04,
-3.940000E+01,-4.099196E-08,+9.910000E+37,+3.472050E+03,+2.150800E+04,
-3.930000E+01,-3.897158E-08,+9.910000E+37,+3.473108E+03,+2.150800E+04,
-3.920000E+01,-3.998175E-08,+9.910000E+37,+3.474168E+03,+2.150800E+04,
-3.910000E+01,-3.291037E-08,+9.910000E+37,+3.475229E+03,+2.150800E+04,
-3.900000E+01,-2.836447E-08,+9.910000E+37,+3.476287E+03,+2.150800E+04,
-3.890000E+01,-2.482878E-08,+9.910000E+37,+3.477348E+03,+2.150800E+04,
-3.880000E+01,-2.987977E-08,+9.910000E+37,+3.478408E+03,+2.150800E+04,
-3.870000E+01,-2.432367E-08,+9.910000E+37,+3.479467E+03,+2.150800E+04,
-3.860000E+01,-2.583897E-08,+9.910000E+37,+3.480526E+03,+2.150800E+04,
-3.850000E+01,-2.280837E-08,+9.910000E+37,+3.481585E+03,+2.150800E+04,
-3.840000E+01,-2.583895E-08,+9.910000E+37,+3.482645E+03,+2.150800E+04,
-3.830000E+01,-1.624208E-08,+9.910000E+37,+3.483725E+03,+2.150800E+04,
-3.820000E+01,-1.674716E-08,+9.910000E+37,+3.484783E+03,+2.150800E+04,
-3.810000E+01,-1.169618E-08,+9.910000E+37,+3.485842E+03,+2.150800E+04,
-3.800000E+01,-1.169619E-08,+9.910000E+37,+3.486899E+03,+2.150800E+04,
-3.790000E+01,-7.150276E-09,+9.910000E+37,+3.487959E+03,+2.150800E+04,
-3.780000E+01,-7.655373E-09,+9.910000E+37,+3.489017E+03,+2.150800E+04,
-3.770000E+01,-5.129877E-09,+9.910000E+37,+3.490073E+03,+2.150800E+04,
-3.760000E+01,-2.099277E-09,+9.910000E+37,+3.491133E+03,+2.150800E+04,
-3.750000E+01,-4.119677E-09,+9.910000E+37,+3.492191E+03,+2.150800E+04,
-3.740000E+01,-1.594176E-09,+9.910000E+37,+3.493250E+03,+2.150800E+04,
-3.730000E+01,-2.099276E-09,+9.910000E+37,+3.494311E+03,+2.150800E+04,
-3.720000E+01,+8.507056E-09,+9.910000E+37,+3.495371E+03,+2.150800E+04,
-3.710000E+01,+1.941421E-09,+9.910000E+37,+3.496430E+03,+2.150800E+04,
-3.700000E+01,-3.109475E-09,+9.910000E+37,+3.497489E+03,+2.150800E+04,
-3.690000E+01,-7.887679E-11,+9.910000E+37,+3.498547E+03,+2.150800E+04,
-3.680000E+01,+1.002220E-08,+9.910000E+37,+3.499605E+03,+2.150800E+04,
-3.670000E+01,+8.002004E-09,+9.910000E+37,+3.500690E+03,+2.150800E+04,
-3.660000E+01,+5.476762E-09,+9.910000E+37,+3.501751E+03,+2.150800E+04,
-3.650000E+01,+9.012106E-09,+9.910000E+37,+3.502811E+03,+2.150800E+04,
-3.640000E+01,+1.153734E-08,+9.910000E+37,+3.503869E+03,+2.150800E+04,
-3.630000E+01,+1.204239E-08,+9.910000E+37,+3.504929E+03,+2.150800E+04,
-3.620000E+01,+1.406258E-08,+9.910000E+37,+3.505987E+03,+2.150800E+04,
-3.610000E+01,+1.406260E-08,+9.910000E+37,+3.507045E+03,+2.150800E+04,
-3.600000E+01,+1.658783E-08,+9.910000E+37,+3.508104E+03,+2.150800E+04,
-3.590000E+01,+1.608278E-08,+9.910000E+37,+3.509163E+03,+2.150800E+04,
-3.580000E+01,+2.315347E-08,+9.910000E+37,+3.510223E+03,+2.150800E+04,
-3.570000E+01,+2.062825E-08,+9.910000E+37,+3.511281E+03,+2.150800E+04,
-3.560000E+01,+2.012316E-08,+9.910000E+37,+3.512338E+03,+2.150800E+04,
-3.550000E+01,+3.072920E-08,+9.910000E+37,+3.513396E+03,+2.150800E+04,
-3.540000E+01,+2.719386E-08,+9.910000E+37,+3.514455E+03,+2.150800E+04,
-3.530000E+01,+2.870901E-08,+9.910000E+37,+3.515517E+03,+2.150800E+04,
-3.520000E+01,+3.123425E-08,+9.910000E+37,+3.516575E+03,+2.150800E+04,
-3.510000E+01,+3.123425E-08,+9.910000E+37,+3.517635E+03,+2.150800E+04,
-3.500000E+01,+2.971911E-08,+9.910000E+37,+3.518693E+03,+2.150800E+04,
-3.490000E+01,+3.173931E-08,+9.910000E+37,+3.519752E+03,+2.150800E+04,
-3.480000E+01,+3.729484E-08,+9.910000E+37,+3.520812E+03,+2.150800E+04,
-3.470000E+01,+2.567869E-08,+9.910000E+37,+3.521874E+03,+2.150800E+04,
-3.460000E+01,+3.527462E-08,+9.910000E+37,+3.522937E+03,+2.150800E+04,
-3.450000E+01,+3.476958E-08,+9.910000E+37,+3.523999E+03,+2.150800E+04,
-3.440000E+01,+3.881001E-08,+9.910000E+37,+3.525056E+03,+2.150800E+04,
-3.430000E+01,+3.274938E-08,+9.910000E+37,+3.526114E+03,+2.150800E+04,
-3.420000E+01,+3.931501E-08,+9.91000


current through plasma (-mA) <tab> voltage across plasma (-V) <tab> time (sec)
3.514298	437.269137	0.002000
3.515769	436.966543	0.102000
3.519850	437.006576	0.202000
3.521002	436.646923	0.302000
3.518892	436.957725	0.402000
3.515615	437.291650	0.502000
3.514072	437.013074	0.602000
3.516183	437.068658	0.702000
3.520251	436.831940	0.802000
3.521131	436.948742	0.902000
3.518073	436.657951	1.002000
3.514182	436.994157	1.102000
3.514300	437.178050	1.202000
3.517704	437.005402	1.302000
3.520823	436.556979	1.402000
3.520923	436.905223	1.502000
3.517053	437.011761	1.602000
3.513520	437.193311	1.702000
3.514397	437.275785	1.802000
3.518921	436.987092	1.902000
3.521874	436.560387	2.002000
3.519537	436.955704	2.102000
3.515313	437.248375	2.202000
3.513773	437.231970	2.302000
3.516175	437.133342	2.402000
3.519288	436.848827	2.502000
3.521103	436.913796	2.602000
3.519139	436.889742	2.702000
3.515301	437.300104	2.802000
3.513678	437.182232	2.902000
3.516732	436.984261	3.002000
3.520896	436.710768	3.102000
3.521100	436.680993	3.202000
3.517422	436.864785	3.302000
3.514300	437.243338	3.402000
3.514575	436.983611	3.502000
3.517781	437.026355	3.602000
3.520993	436.768317	3.702000
3.520510	436.525078	3.802000
3.516588	436.979930	3.902000
3.513232	437.150754	4.002000
3.514952	437.231640	4.102000
3.519202	436.855557	4.202000
3.521407	436.758602	4.302000
3.519522	436.544726	4.402000
3.515734	437.063692	4.502000
3.513842	436.941777	4.602000
3.515311	437.178791	4.702000
3.519287	436.739876	4.802000
3.521316	436.700623	4.902000
3.519233	436.679515	5.002000
3.514419	437.271456	5.102000
3.513271	437.245080	5.202000
3.517233	437.214002	5.302000
3.521104	436.921012	5.402000
3.520651	436.761294	5.502000
3.517391	436.892639	5.602000
3.514234	437.260821	5.702000
3.514265	437.458602	5.802000
3.517774	437.070657	5.902000
3.520951	436.817398	6.002000
3.520643	436.471905	6.102000
3.516165	437.224701	6.202000
3.513491	437.204714	6.302000
3.514950	437.072505	6.402000
3.518860	436.876009	6.502000
3.520943	436.771502	6.602000
3.519659	436.772036	6.702000
3.515822	437.218669	6.802000
3.513770	437.305169	6.902000
3.515502	437.022734	7.002000
3.519949	436.739570	7.102000
3.522200	436.606853	7.202000
3.518220	436.972054	7.302000
3.514053	437.020633	7.402000
3.513764	437.197805	7.502000
3.517477	437.277002	7.602000
3.520675	436.639209	7.702000
3.520332	436.587670	7.802000
3.517656	436.819546	7.902000
3.514339	437.282762	8.002000
3.513785	437.388786	8.102000
3.517360	437.191729	8.202000
3.521277	436.627221	8.302000
3.520588	436.648913	8.402000
3.516684	437.149164	8.502000
3.513819	437.091329	8.602000
3.514795	437.429725	8.702000
3.518388	436.754505	8.802000
3.520848	437.004193	8.902000
3.520055	436.763429	9.002000
3.515868	436.969126	9.102000
3.513086	437.574849	9.202000
3.514819	437.158589	9.302000
3.519552	436.932966	9.402000
3.521386	436.841331	9.502000
3.518452	436.835717	9.602000
3.514792	437.312406	9.702000
3.514328	437.019975	9.802000
3.515909	437.189396	9.902000
3.519573	436.660174	10.002000
3.521085	436.672698	10.102000
3.519232	436.858224	10.202000
3.514510	437.382916	10.302000
3.512899	437.580035	10.402000
3.516770	437.175561	10.502000
3.520702	436.803341	10.602000
3.520524	436.691880	10.702000
3.516914	437.021178	10.802000
3.514122	437.121156	10.902000
3.513992	437.366891	11.002000
3.517326	436.762850	11.102000
3.520704	436.639801	11.202000
3.520245	436.518161	11.302000
3.516044	436.818015	11.402000
3.513502	437.465358	11.502000
3.515520	436.909822	11.602000
3.518986	436.707882	11.702000
3.520928	436.625800	11.802000
3.519606	436.523045	11.902000
3.516125	436.994338	12.002000
3.513529	437.246784	12.102000
3.515054	436.862219	12.202000
3.519386	436.707657	12.302000
3.521250	436.501009	12.402000
3.518695	436.882194	12.502000
3.514060	437.304285	12.602000
3.513087	437.196492	12.702000
3.516532	437.035775	12.802000
3.519578	436.642003	12.902000
3.520646	436.796334	13.002000
3.517790	436.676031	13.102000
3.514442	437.399433	13.202000
3.513605	437.576313	13.302000
3.516918	437.143343	13.402000
3.520719	436.922967	13.502000
3.520113	436.945287	13.602000
3.516215	437.343958	13.702000
3.513702	437.328065	13.802000
3.514256	437.308999	13.902000
3.517857	437.171564	14.002000
3.520783	436.518087	14.102000
3.520263	437.255970	14.202000
3.516307	436.514865	14.302000
3.512711	437.509229	14.402000
3.514682	436.927411	14.502000
3.519543	436.670841	14.602000
3.520962	436.706845	14.702000
3.518423	437.032140	14.802000
3.514647	437.041537	14.902000
3.513921	436.884637	15.002000
3.516115	436.940139	15.102000
3.519413	437.006786	15.202000
3.520485	436.810511	15.302000
3.518231	436.857294	15.402000
3.514056	437.173480	15.502000
3.513087	437.369868	15.602000
3.516402	436.868676	15.702000
3.520618	436.814188	15.802000
3.520128	436.594094	15.902000
3.517004	437.305151	16.002000
3.513831	437.663958	16.102000
3.514163	437.166273	16.202000
3.517604	436.823274	16.302000
3.521119	436.616969	16.402000
3.520168	436.193513	16.502000
3.515586	436.834310	16.602000
3.512921	437.166146	16.702000
3.514994	436.799499	16.802000
3.518938	436.684794	16.902000
3.520521	436.866534	17.002000
3.518570	436.810285	17.102000
3.515397	436.524532	17.202000
3.513654	437.290618	17.302000
3.514997	436.662026	17.402000
3.519128	436.909358	17.502000
3.521010	436.590295	17.602000
3.518052	436.635751	17.702000
3.513912	437.383309	17.802000
3.513247	437.446537	17.902000
3.516516	436.776275	18.002000
3.519793	436.666789	18.102000
3.520527	436.611601	18.202000
3.517409	436.600354	18.302000
3.513910	437.337085	18.402000
3.513286	437.459061	18.502000
3.516775	437.349260	18.602000
3.520635	436.831967	18.702000
3.520172	436.902599	18.802000
3.516471	436.775608	18.902000
3.514065	437.035917	19.002000
3.514393	437.298832	19.102000
3.517410	436.747981	19.202000
3.520509	436.859426	19.302000
3.520090	436.267871	19.402000
3.516103	436.575819	19.502000
3.512441	437.765237	19.602000
3.514193	437.042805	19.702000
3.518489	436.882046	19.802000
3.520678	436.837067	19.902000
3.518717	436.606818	20.002000
3.514489	437.376449	20.102000
3.513056	437.461876	20.202000
3.515015	437.310974	20.302000
3.518329	437.243295	20.402000
3.521029	436.186871	20.502000
3.518470	436.822286	20.602000
3.514463	436.726550	20.702000
3.512774	437.310208	20.802000
3.516229	436.913796	20.902000
3.519455	436.943039	21.002000
3.520039	436.515824	21.102000
3.517432	436.842590	21.202000
3.513415	437.378769	21.302000
3.513311	437.320016	21.402000
3.516496	436.911783	21.502000
3.520609	436.908270	21.602000
3.520059	436.763429	21.702000
3.515875	437.662516	21.802000
3.513031	437.408019	21.902000
3.513891	437.011158	22.002000
3.517956	436.386624	22.102000
3.520634	436.252594	22.202000
3.519615	436.462276	22.302000
3.516801	436.929606	22.402000
3.513463	437.237520	22.502000
3.513715	437.570155	22.602000
3.518126	436.691362	22.702000
3.521036	436.790092	22.802000
3.518779	437.032646	22.902000
3.515166	436.898673	23.002000
3.513492	436.817991	23.102000
3.514619	437.015549	23.202000
3.518154	436.760492	23.302000
3.520354	436.501934	23.402000
3.518801	436.914819	23.502000
3.514687	437.167607	23.602000
3.512851	437.079394	23.702000
3.515067	437.080289	23.802000
3.519325	436.195276	23.902000
3.520249	436.491377	24.002000
3.517751	437.181605	24.102000
3.514201	437.180249	24.202000
3.513298	437.308084	24.302000
3.515316	436.970553	24.402000
3.519364	436.505493	24.502000
3.520956	436.594538	24.602000
3.517920	436.832560	24.702000
3.513160	436.959778	24.802000
3.513193	437.589888	24.902000
3.516982	437.013846	25.002000
3.520629	436.759577	25.102000
3.519775	436.649228	25.202000
3.517057	437.085249	25.302000
3.513694	436.920926	25.402000
3.514177	436.635739	25.502000
3.517417	436.933806	25.602000
3.520322	437.166718	25.702000
3.519696	436.755380	25.802000
3.515109	437.318775	25.902000
3.513054	437.579990	26.002000
3.514805	436.795944	26.102000
3.517712	437.093615	26.202000
3.520177	436.781888	26.302000
3.519147	436.849524	26.402000
3.515888	436.813595	26.502000
3.512123	437.387509	26.602000
3.513824	437.309096	26.702000
3.518934	436.533676	26.802000
3.520623	436.562535	26.902000
3.518149	436.499048	27.002000
3.514574	437.034664	27.102000
3.513175	437.185949	27.202000
3.515214	437.152314	27.302000
3.519163	436.553272	27.402000
3.520444	436.746912	27.502000
3.518091	436.882972	27.602000
3.513613	437.583783	27.702000
3.512701	437.464765	27.802000
3.516552	436.748393	27.902000
3.519818	437.117475	28.002000
3.520235	436.543335	28.102000
3.517242	436.736543	28.202000
3.514006	436.831449	28.302000
3.513060	436.973869	28.402000
3.516171	437.500917	28.502000
3.519853	436.724840	28.602000
3.519955	437.166018	28.702000
3.516004	436.970147	28.802000
3.513007	437.087250	28.902000
3.514093	437.034504	29.002000
3.517520	436.552092	29.102000
3.520205	436.580463	29.202000
3.518889	436.539718	29.302000
3.515249	436.948992	29.402000
3.513491	437.283150	29.502000
3.513506	437.001451	29.602000
3.518218	437.081098	29.702000
3.520694	436.413485	29.802000
3.518780	436.692992	29.902000
3.514548	437.285372	30.002000
3.512959	437.227642	30.102000
3.515278	436.598261	30.202000
3.518507	437.118850	30.302000
3.520136	436.633752	30.402000
3.518240	436.993403	30.502000
3.514651	436.392830	30.602000
3.512588	437.284453	30.702000
3.515763	437.479276	30.802000
3.519622	436.780805	30.902000
3.520526	436.389421	31.002000
3.517091	436.694251	31.102000
3.513888	437.283237	31.202000
3.513241	437.077241	31.302000
3.516305	437.120586	31.402000
3.519270	436.964720	31.502000
3.520068	437.081926	31.602000
3.516558	437.480313	31.702000
3.512931	437.132957	31.802000
3.513155	437.363867	31.902000
3.517268	436.879120	32.002000
3.520704	436.574584	32.102000
3.519531	436.503271	32.202000
3.515312	437.147420	32.302000
3.512589	437.744494	32.402000
3.514223	437.184740	32.502000
3.517759	436.609776	32.602000
3.520207	436.822881	32.702000
3.518588	436.348368	32.802000
3.515272	436.781130	32.902000
3.512669	437.435948	33.002000
3.514711	437.101895	33.102000
3.518263	436.962625	33.202000
3.520092	436.471579	33.302000
3.517967	437.076883	33.402000
3.514803	437.103473	33.502000
3.512622	437.250079	33.602000
3.514958	437.190370	33.702000
3.519605	436.788630	33.802000
3.520764	436.765517	33.902000
3.517005	436.754775	34.002000
3.513485	436.881342	34.102000
3.513612	437.339143	34.202000
3.516522	437.451205	34.302000
3.519674	436.464414	34.402000
3.519404	436.606723	34.502000
3.516838	436.927828	34.602000
3.513442	437.220880	34.702000
3.513011	437.082805	34.802000
3.516668	436.882156	34.902000
3.520291	436.929309	35.002000
3.519808	436.545586	35.102000
3.516090	437.282718	35.202000
3.513105	437.239194	35.302000
3.514058	436.860514	35.402000
3.517581	437.017642	35.502000
3.520583	436.801986	35.602000
3.519745	436.402981	35.702000
3.515165	437.377054	35.802000
3.512102	437.458839	35.902000
3.514119	437.323812	36.002000
3.518632	436.544848	36.102000
3.520663	436.473534	36.202000
3.518288	436.747367	36.302000
3.514896	436.909604	36.402000
3.513274	437.517865	36.502000
3.513839	437.351751	36.602000
3.517826	436.875933	36.702000
3.521007	436.685950	36.802000
3.518398	436.904376	36.902000
3.514262	437.077026	37.002000
3.512800	437.044147	37.102000
3.515297	437.105275	37.202000
3.519306	436.533042	37.302000
3.520302	436.863115	37.402000
3.517548	437.115296	37.502000
3.513033	437.242111	37.602000
3.512676	437.584450	37.702000
3.515501	437.210150	37.802000
3.520585	436.647680	37.902000
3.520177	436.707805	38.002000
3.516138	437.104222	38.102000
3.513251	437.376028	38.202000
3.513395	437.308159	38.302000
3.516305	436.774168	38.402000
3.519530	436.134202	38.502000
3.520395	436.888417	38.602000
3.516972	436.911530	38.702000
3.512565	436.994695	38.802000
3.512734	437.227452	38.902000
3.517727	436.699437	39.002000
3.520610	436.579004	39.102000
3.518643	436.990500	39.202000
3.514949	437.028214	39.302000
3.512859	437.407421	39.402000
3.514174	436.998144	39.502000
3.517300	436.714715	39.602000
3.519861	436.988012	39.702000
3.518958	436.949584	39.802000
3.514561	436.911796	39.902000
3.511900	437.347199	40.002000
3.514311	437.540138	40.102000
3.519232	436.687142	40.202000
3.520282	436.867042	40.302000
3.518282	436.917575	40.402000
3.514326	437.363038	40.502000
3.512710	436.929781	40.602000
3.514587	437.142424	40.702000
3.519056	436.639590	40.802000
3.520578	436.938692	40.902000
3.517333	436.768346	41.002000
3.513013	437.200862	41.102000
3.512670	436.931902	41.202000
3.516035	436.883007	41.302000
3.518934	436.597198	41.402000
3.519377	436.832782	41.502000
3.516766	437.061322	41.602000
3.513674	436.789982	41.702000
3.512471	437.356253	41.802000
3.515706	436.848296	41.902000
3.520402	436.556044	42.002000
3.519623	436.828162	42.102000
3.515663	436.984918	42.202000
3.512686	437.192099	42.302000
3.512829	437.372510	42.402000
3.516928	436.689658	42.502000
3.519843	436.519974	42.602000
3.519257	436.402076	42.702000
3.515554	436.982129	42.802000
3.512084	437.375362	42.902000
3.513439	437.221145	43.002000
3.517870	437.004745	43.102000
3.519762	436.638468	43.202000
3.518154	437.099910	43.302000
3.514614	437.107334	43.402000
3.512973	437.241930	43.502000
3.514087	437.224944	43.602000
3.517891	436.940495	43.702000
3.520243	436.569154	43.802000
3.517852	436.910134	43.902000
3.513096	437.439652	44.002000
3.511803	437.011983	44.102000
3.515034	437.164012	44.202000
3.518967	436.806158	44.302000
3.519882	436.443289	44.402000
3.516903	436.770317	44.502000
3.513388	436.965703	44.602000
3.512183	437.362119	44.702000
3.514993	437.354353	44.802000
3.518970	436.730328	44.902000
3.520049	436.967125	45.002000
3.516095	437.031399	45.102000
3.512616	437.148161	45.202000
3.512859	437.585857	45.302000
3.515496	436.842087	45.402000
3.518499	436.948473	45.502000
3.519147	436.699658	45.602000
3.516058	437.192197	45.702000
3.512710	437.268229	45.802000
3.512600	437.631926	45.902000
3.516327	437.068952	46.002000
3.520733	436.527569	46.102000
3.518973	436.470201	46.202000
3.514236	437.106362	46.302000
3.512353	437.647491	46.402000
3.514037	437.357009	46.502000
3.516772	436.805838	46.602000
3.519976	436.637984	46.702000
3.518704	436.920909	46.802000
3.515370	437.046283	46.902000
3.512231	437.267603	47.002000
3.513812	436.873713	47.102000
3.517922	436.957979	47.202000
3.519966	436.899529	47.302000
3.517786	436.787944	47.402000
3.514463	437.248338	47.502000
3.512437	437.314257	47.602000
3.514241	437.032436	47.702000
3.518081	436.793667	47.802000
3.520312	436.672846	47.902000
3.517487	436.978795	48.002000
3.513434	437.325916	48.102000
3.511935	437.440837	48.202000
3.515628	436.990071	48.302000
3.518875	436.759620	48.402000
3.518972	436.645367	48.502000
3.517439	436.885009	48.602000
3.514151	437.278483	48.702000
3.511947	437.345273	48.802000
3.514632	437.103317	48.902000
3.519115	436.502272	49.002000
3.520422	436.639791	49.102000
3.516230	436.933061	49.202000
3.512522	437.462167	49.302000
3.512707	437.270600	49.402000
3.515671	436.995760	49.502000
3.518985	436.911190	49.602000
3.519372	436.686324	49.702000
3.515256	437.199132	49.802000
3.512422	437.246449	49.902000
3.512271	437.230826	50.002000
3.516786	436.837000	50.102000
3.519798	436.464304	50.202000
3.518644	436.833023	50.302000
3.514932	437.060061	50.402000
3.512664	437.304555	50.502000
3.512686	437.322508	50.602000
3.516023	437.021252	50.702000
3.519524	436.796832	50.802000
3.519108	436.949579	50.902000
3.513867	437.348219	51.002000
3.511804	437.358222	51.102000
3.513009	437.311467	51.202000
3.517882	436.929707	51.302000
3.519160	436.962074	51.402000
3.517661	436.854446	51.502000
3.514234	437.201825	51.602000
3.512241	437.190665	51.702000
3.513356	437.232556	51.802000
3.517518	436.929699	51.902000
3.519881	436.862226	52.002000
3.516983	436.885305	52.102000
3.513437	437.130648	52.202000
3.511774	437.287416	52.302000
3.514274	437.109225	52.402000
3.517866	436.593292	52.502000
3.519721	436.668174	52.602000
3.516924	436.973091	52.702000
3.513356	437.079175	52.802000
3.510998	437.456377	52.902000
3.514801	437.108964	53.002000
3.518904	436.779774	53.102000
3.519192	436.664026	53.202000
3.515708	437.099910	53.302000
3.512437	437.008650	53.402000
3.512684	437.241930	53.502000
3.514676	437.037524	53.602000
3.517907	437.092144	53.702000
3.519324	436.799054	53.802000
3.516220	436.865976	53.902000
3.512069	437.108371	54.002000
3.512233	437.332519	54.102000
3.515624	437.064507	54.202000
3.519019	436.446500	54.302000
3.518402	436.842887	54.402000
3.515844	436.907339	54.502000
3.512308	436.994338	54.602000
3.511871	437.470752	54.702000
3.515175	437.128970	54.802000
3.518965	436.703576	54.902000
3.518706	436.764285	55.002000
3.514585	436.869304	55.102000
3.511857	437.244819	55.202000
3.512333	437.268382	55.302000
3.515355	437.016354	55.402000
3.518397	436.709660	55.502000
3.518241	436.718179	55.602000
3.515195	437.118363	55.702000
3.511147	437.618298	55.802000
3.511726	437.063248	55.902000
3.516091	437.042940	56.002000
3.519226	436.728752	56.102000
3.517271	436.788242	56.202000
3.513675	437.227896	56.302000
3.511799	437.312653	56.402000
3.512808	437.081542	56.502000
3.516018	437.206964	56.602000
3.518968	436.685361	56.702000
3.518162	436.714030	56.802000
3.513615	437.083101	56.902000
3.511215	437.282470	57.002000
3.513339	437.013974	57.102000
3.516967	436.773607	57.202000
3.519106	436.612762	57.302000
3.517221	436.904863	57.402000
3.513537	437.162219	57.502000
3.511281	437.295593	57.602000
3.513232	437.075323	57.702000
3.517671	436.880601	57.802000
3.519344	436.413725	57.902000
3.516437	436.863270	58.002000
3.512367	437.243560	58.102000
3.511340	437.139106	58.202000
3.514280	437.334444	58.302000
3.517305	436.936740	58.402000
3.518464	436.754233	58.502000
3.516749	436.825056	58.602000
3.512823	437.104436	58.702000
3.511004	437.481405	58.802000
3.513886	436.980203	58.902000
3.518319	436.982014	59.002000
3.519079	436.733752	59.102000
3.515883	436.960349	59.202000
3.512325	437.174939	59.302000
3.511731	437.312282	59.402000
3.514333	437.257635	59.502000
3.518105	436.622082	59.602000
3.519002	436.823151	59.702000
3.515288	436.898903	59.802000
3.511739	437.335756	59.902000
3.511672	437.031918	60.002000
3.515453	436.960296	60.102000
3.518391	436.651629	60.202000
3.517928	436.945409	60.302000
3.515395	437.077471	60.402000
3.512306	437.168644	60.502000
3.511679	437.315113	60.602000
3.515394	436.868306	60.702000
3.519132	436.714105	60.802000
3.518483	436.806113	60.902000
3.514057	436.921942	61.002000
3.511007	437.344330	61.102000
3.512611	437.246153	61.202000
3.516169	436.888230	61.302000
3.518730	436.622467	61.402000
3.517212	436.754330	61.502000
3.513715	437.284008	61.602000
3.511163	437.011317	61.702000
3.512275	437.248005	61.802000
3.516357	436.936150	61.902000
3.518677	436.803594	62.002000
3.516927	436.793109	62.102000
3.513183	437.182245	62.202000
3.511281	437.238088	62.302000
3.512635	437.172834	62.402000
3.516405	436.968888	62.502000
3.519047	436.819843	62.602000
3.517083	437.027252	62.702000
3.512392	437.150589	62.802000
3.510603	437.160071	62.902000
3.513418	437.032510	63.002000
3.517321	436.817521	63.102000
3.518382	436.670263	63.202000
3.516491	436.635727	63.302000
3.513500	437.032120	63.402000
3.511247	437.270196	63.502000
3.512824	437.258486	63.602000
3.516943	436.900788	63.702000
3.518870	436.584019	63.802000
3.516098	436.937039	63.902000
3.511608	437.240780	64.002000
3.510892	437.238498	64.102000
3.514138	436.855367	64.202000
3.517298	436.731869	64.302000
3.518329	436.698846	64.402000
3.515599	436.834134	64.502000
3.511308	437.341921	64.602000
3.511063	437.097695	64.702000
3.514311	436.917782	64.802000
3.518092	436.772036	64.902000
3.517806	436.701954	65.002000
3.514503	436.758911	65.102000
3.511505	437.363970	65.202000
3.511371	437.057025	65.302000
3.514069	436.970016	65.402000
3.517549	436.891716	65.502000
3.518227	436.663958	65.602000
3.514413	436.942841	65.702000
3.510680	437.176221	65.802000
3.511382	437.050431	65.902000
3.515622	437.013286	66.002000
