probe voltage (V), probe current (A), resistance (9.9e37 if not enabled) , timestamp , status word ,
,-4.369000E+01,-1.422189E-08,+9.910000E+37,+2.693040E+03,+2.150800E+04
,-4.368000E+01,-1.927296E-08,+9.910000E+37,+2.694101E+03,+2.150800E+04
,-4.367000E+01,-1.826275E-08,+9.910000E+37,+2.695176E+03,+2.150800E+04
,-4.366000E+01,-1.624231E-08,+9.910000E+37,+2.696235E+03,+2.150800E+04
,-4.365000E+01,-1.321168E-08,+9.910000E+37,+2.697295E+03,+2.150800E+04
,-4.364000E+01,-1.674743E-08,+9.910000E+37,+2.698353E+03,+2.150800E+04
,-4.363000E+01,-1.573721E-08,+9.910000E+37,+2.699413E+03,+2.150800E+04
,-4.362000E+01,-1.068615E-08,+9.910000E+37,+2.700492E+03,+2.150800E+04
,-4.361000E+01,-1.523212E-08,+9.910000E+37,+2.701553E+03,+2.150800E+04
,-4.360000E+01,-1.169636E-08,+9.910000E+37,+2.702609E+03,+2.150800E+04
,-4.359000E+01,-1.220146E-08,+9.910000E+37,+2.703669E+03,+2.150800E+04
,-4.358000E+01,-9.675926E-09,+9.910000E+37,+2.704728E+03,+2.150800E+04
,-4.357000E+01,-1.321168E-08,+9.910000E+37,+2.705786E+03,+2.150800E+04
,-4.356000E+01,-1.119125E-08,+9.910000E+37,+2.706864E+03,+2.150800E+04
,-4.355000E+01,-1.119126E-08,+9.910000E+37,+2.707922E+03,+2.150800E+04
,-4.354000E+01,-1.018103E-08,+9.910000E+37,+2.708982E+03,+2.150800E+04
,-4.353000E+01,-9.170821E-09,+9.910000E+37,+2.710041E+03,+2.150800E+04
,-4.352000E+01,-1.674742E-08,+9.910000E+37,+2.711102E+03,+2.150800E+04
,-4.351000E+01,-1.321166E-08,+9.910000E+37,+2.712162E+03,+2.150800E+04
,-4.350000E+01,-8.665713E-09,+9.910000E+37,+2.713221E+03,+2.150800E+04
,-4.349000E+01,-1.270657E-08,+9.910000E+37,+2.714278E+03,+2.150800E+04
,-4.348000E+01,-1.472699E-08,+9.910000E+37,+2.715339E+03,+2.150800E+04
,-4.347000E+01,-7.150393E-09,+9.910000E+37,+2.716396E+03,+2.150800E+04
,-4.346000E+01,-5.129962E-09,+9.910000E+37,+2.717456E+03,+2.150800E+04
,-4.345000E+01,-9.675924E-09,+9.910000E+37,+2.718516E+03,+2.150800E+04
,-4.344000E+01,-7.150388E-09,+9.910000E+37,+2.719579E+03,+2.150800E+04
,-4.343000E+01,-8.665713E-09,+9.910000E+37,+2.720637E+03,+2.150800E+04
,-4.342000E+01,-7.150391E-09,+9.910000E+37,+2.721695E+03,+2.150800E+04
,-4.341000E+01,-5.129961E-09,+9.910000E+37,+2.722754E+03,+2.150800E+04
,-4.340000E+01,-5.635068E-09,+9.910000E+37,+2.723813E+03,+2.150800E+04
,-4.339000E+01,-7.150391E-09,+9.910000E+37,+2.724876E+03,+2.150800E+04
,-4.338000E+01,-8.160600E-09,+9.910000E+37,+2.725937E+03,+2.150800E+04
,-4.337000E+01,-8.160599E-09,+9.910000E+37,+2.726996E+03,+2.150800E+04
,-4.336000E+01,-4.624855E-09,+9.910000E+37,+2.728055E+03,+2.150800E+04
,-4.335000E+01,-7.655498E-09,+9.910000E+37,+2.729135E+03,+2.150800E+04
,-4.334000E+01,-4.119748E-09,+9.910000E+37,+2.730196E+03,+2.150800E+04
,-4.333000E+01,-6.645282E-09,+9.910000E+37,+2.731258E+03,+2.150800E+04
,-4.332000E+01,-4.624853E-09,+9.910000E+37,+2.732338E+03,+2.150800E+04
,-4.331000E+01,-1.089106E-09,+9.910000E+37,+2.733394E+03,+2.150800E+04
,-4.330000E+01,-2.604425E-09,+9.910000E+37,+2.734452E+03,+2.150800E+04
,-4.329000E+01,-3.614639E-09,+9.910000E+37,+2.735511E+03,+2.150800E+04
,-4.328000E+01,+1.436379E-09,+9.910000E+37,+2.736570E+03,+2.150800E+04
,-4.327000E+01,-5.129957E-09,+9.910000E+37,+2.737632E+03,+2.150800E+04
,-4.326000E+01,-1.594212E-09,+9.910000E+37,+2.738691E+03,+2.150800E+04
,-4.325000E+01,-3.614638E-09,+9.910000E+37,+2.739750E+03,+2.150800E+04
,-4.324000E+01,-5.839983E-10,+9.910000E+37,+2.740810E+03,+2.150800E+04
,-4.323000E+01,-2.099318E-09,+9.910000E+37,+2.741871E+03,+2.150800E+04
,-4.322000E+01,+4.466712E-09,+9.910000E+37,+2.742934E+03,+2.150800E+04
,-4.321000E+01,-7.889100E-11,+9.910000E+37,+2.743990E+03,+2.150800E+04
,-4.320000E+01,+4.262157E-10,+9.910000E+37,+2.745048E+03,+2.150800E+04
,-4.319000E+01,-1.594212E-09,+9.910000E+37,+2.746119E+03,+2.150800E+04
current through plasma (-mA) <tab> voltage across plasma (-V) <tab> time (sec)
3.421994	443.430406	0.002000
3.419719	443.612930	0.102000
3.429038	442.956993	0.202000
3.424660	443.214151	0.302000
3.416493	443.804050	0.402000
3.423011	443.292737	0.502000
3.427980	442.935484	0.602000
3.420688	443.452303	0.702000
3.417613	443.711016	0.802000
3.426619	443.031807	0.902000
3.425173	443.110249	1.002000
3.416306	443.758611	1.102000
3.419877	443.493243	1.202000
3.428954	442.797255	1.302000
3.422733	443.209193	1.402000
3.415608	443.757415	1.502000
3.423172	443.219795	1.602000
3.427887	442.822808	1.702000
3.419064	443.452613	1.802000
3.415416	443.706162	1.902000
3.425212	442.942257	2.002000
3.425782	442.883725	2.102000
3.416081	443.615631	2.202000
3.417760	443.542837	2.302000
3.426177	442.881871	2.402000
3.421381	443.194809	2.502000
3.415478	443.646626	2.602000
3.422210	443.173397	2.702000
3.426608	442.827554	2.802000
3.417422	443.454268	2.902000
3.415664	443.597701	3.002000
3.425562	442.888015	3.102000
3.424720	442.939498	3.202000
3.414869	443.650871	3.302000
3.417758	443.413888	3.402000
3.427160	442.674687	3.502000
3.421463	443.105239	3.602000
3.413050	443.750251	3.702000
3.420219	443.241554	3.802000
3.426407	442.737029	3.902000
3.417812	443.331771	4.002000
3.414584	443.605320	4.102000
3.423028	442.969269	4.202000
3.423013	442.899187	4.302000
3.414806	443.476473	4.402000
3.417427	443.299017	4.502000
3.425483	442.714787	4.602000
3.419162	443.183268	4.702000
3.412619	443.645969	4.802000
3.420008	443.070296	4.902000
3.425357	442.611839	5.002000
3.415122	443.378656	5.102000
3.412452	443.581683	5.202000
3.422371	442.839713	5.302000
3.422464	442.767999	5.402000
3.412191	443.518741	5.502000
3.413855	443.396022	5.602000
3.422792	442.696886	5.702000
3.418333	442.989840	5.803000
3.411198	443.497096	5.902000
3.417395	443.031742	6.002000
3.421693	442.720043	6.102000
3.413823	443.266771	6.202000
3.411201	443.445472	6.302000
3.420862	442.678908	6.402000
3.420669	442.685628	6.502000
3.410187	443.486681	6.602000
3.412767	443.307636	6.702000
3.422016	442.595615	6.802000
3.417071	442.918196	6.902000
3.408605	443.535834	7.002000
3.416003	442.995292	7.102000
3.422432	442.483194	7.202000
3.412670	443.169013	7.302000
3.408389	443.479333	7.402000
3.417653	442.784211	7.502000
3.418688	442.684708	7.602000
3.409336	443.342935	7.702000
3.411083	443.179575	7.802000
3.418348	442.567407	7.902000
3.413682	442.843892	8.002000
3.405639	443.435986	8.102000
3.412642	442.928459	8.202000
3.418149	442.476173	8.302000
3.409261	443.070700	8.402000
3.405027	443.360035	8.502000
3.414935	442.624012	8.602000
3.416009	442.539729	8.702000
3.405186	443.321845	8.802000
3.406877	443.192080	8.902000
3.416905	442.443200	9.002000
3.413230	442.700630	9.102000
3.403744	443.446731	9.202000
3.409996	442.943010	9.303000
3.416511	442.425829	9.402000
3.409212	442.954557	9.502000
3.405378	443.299154	9.602000
3.414719	442.620050	9.702000
3.415020	442.575140	9.802000
3.405212	443.306895	9.902000
3.408344	443.101175	10.002000
3.417944	442.438426	10.102000
3.412699	442.868331	10.202000
3.405078	443.449331	10.302000
3.413271	442.875495	10.402000
3.419221	442.465311	10.502000
3.410096	443.200092	10.602000
3.406296	443.500322	10.702000
3.416452	442.711975	10.802000
3.418316	442.547185	10.902000
3.408283	443.318102	11.002000
3.409785	443.289015	11.102000
3.419211	442.617751	11.202000
3.414300	442.966353	11.302000
3.407402	443.460441	11.402000
3.415542	442.886645	11.502000
3.419594	442.591938	11.602000
3.410506	443.297443	11.702000
3.408790	443.448912	11.802000
3.419367	442.661871	11.902000
3.419455	442.686214	12.002000
3.409114	443.501480	12.102000
3.412483	443.294529	12.202000
3.422054	442.552800	12.302000
3.416682	442.954375	12.402000
3.408859	443.582221	12.502000
3.416750	443.079541	12.602000
3.422573	442.655978	12.702000
3.414215	443.260100	12.802000
3.412095	443.412831	12.902000
3.421076	442.798340	13.002000
3.420577	442.850110	13.102000
3.411692	443.573499	13.202000
3.416508	443.226474	13.302000
3.424839	442.660189	13.402000
3.418294	443.148785	13.502000
3.412014	443.669027	13.602000
3.420712	443.026768	13.702000
3.424980	442.677236	13.802000
3.415478	443.357448	13.902000
3.413394	443.532505	14.002000
3.424366	442.763080	14.102000
3.423176	442.843826	14.202000
3.413461	443.557642	14.302000
3.416697	443.321105	14.402000
3.424898	442.731614	14.502000
3.419364	443.143198	14.602000
3.414076	443.564418	14.702000
3.422044	443.021749	14.802000
3.425269	442.776603	14.902000
3.415915	443.481534	15.002000
3.416212	443.479439	15.102000
3.426380	442.739149	15.202000
3.423451	442.914633	15.302000
3.413626	443.677107	15.402000
3.419715	443.266443	15.502000
3.427724	442.688442	15.602000
3.420267	443.244893	15.702000
3.414510	443.667678	15.802000
3.423673	442.962607	15.902000
3.427484	442.678226	16.002000
3.417890	443.412294	16.102000
3.417074	443.509445	16.202000
3.426374	442.797914	16.302000
3.423700	442.974799	16.402000
3.416199	443.575621	16.502000
3.421959	443.196708	16.602000
3.428313	442.701486	16.702000
3.420365	443.306426	16.802000
3.416501	443.634565	16.902000
3.426604	442.916919	17.002000
3.428553	442.817201	17.102000
3.418424	443.569247	17.202000
3.419420	443.469267	17.302000
3.429534	442.706480	17.402000
3.425826	442.979549	17.502000
3.416833	443.702532	17.602000
3.422604	443.299490	17.702000
3.430463	442.714357	17.802000
3.423217	443.218054	17.902000
3.418673	443.578083	18.002000
3.426550	443.030956	18.102000
3.428196	442.875782	18.202000
3.419478	443.495806	18.302000
3.421127	443.382426	18.402000
3.430124	442.763091	18.502000
3.424963	443.155466	18.602000
3.417347	443.695895	18.702000
3.424653	443.131856	18.802000
3.430878	442.648978	18.902000
3.421991	443.315519	19.002000
3.418009	443.660373	19.102000
3.428069	442.943014	19.202000
3.429488	442.803905	19.302000
3.419796	443.520850	19.402000
3.421061	443.465845	19.502000
3.430190	442.801734	19.602000
3.426218	443.069662	19.702000
3.419486	443.583780	19.806000
3.425994	443.141717	19.902000
3.431132	442.789642	20.002000
3.422047	443.480941	20.102000
3.420064	443.585840	20.202000
3.430441	442.803660	20.302000
3.429759	442.844446	20.402000
3.419546	443.635085	20.502000
3.422515	443.448295	20.602000
3.431610	442.753534	20.702000
3.426444	443.104342	20.802000
3.418522	443.719993	20.903000
3.425935	443.176998	21.002000
3.432009	442.717553	21.102000
3.422826	443.354935	21.202000
3.419887	443.609196	21.302000
3.428859	442.990972	21.402000
3.428575	443.015338	21.502000
3.420279	443.614954	21.602000
3.423670	443.367192	21.702000
3.432015	442.693599	21.802000
3.425253	443.194299	21.902000
3.418904	443.721792	22.002000
3.427633	443.094815	22.102000
3.432495	442.716374	22.202000
3.422123	443.500026	22.302000
3.420367	443.648423	22.402000
3.430443	442.916029	22.502000
3.430504	442.912831	22.602000
3.420303	443.631660	22.702000
3.423444	443.412527	22.802000
3.432330	442.784061	22.902000
3.426971	443.190923	23.002000
3.420046	443.715400	23.102000
3.426942	443.168524	23.202000
3.431360	442.810211	23.302000
3.422383	443.463086	23.404000
3.421960	443.531032	23.502000
3.431106	442.874888	23.602000
3.429283	442.993183	23.702000
3.419417	443.678080	23.802000
3.423012	443.436419	23.902000
3.432736	442.709209	24.002000
3.426243	443.185683	24.102000
3.418619	443.737314	24.202000
3.426782	443.136108	24.302000
3.432174	442.741121	24.402000
3.422541	443.459953	24.502000
3.420172	443.665464	24.602000
3.429351	442.953427	24.702000
3.429697	442.898806	24.802000
3.420710	443.577006	24.902000
3.424505	443.350559	25.002000
3.431491	442.868727	25.102000
3.425227	443.275228	25.202000
3.420056	443.647449	25.302000
3.428596	443.037004	25.402000
3.432451	442.751546	25.502000
3.422121	443.521689	25.602000
3.420822	443.611420	25.702000
3.431650	442.819285	25.802000
3.429837	442.987934	25.902000
3.420070	443.726222	26.002000
3.424442	443.406399	26.102000
3.432803	442.710205	26.202000
3.425732	443.256400	26.302000
3.419893	443.704372	26.402000
3.428516	443.117711	26.502000
3.431310	442.910461	26.602000
3.422713	443.496267	26.702000
3.423535	443.464517	26.802000
3.432094	442.840405	26.902000
3.428497	443.112645	27.002000
3.419978	443.713533	27.102000
3.426362	443.247787	27.202000
3.434252	442.657849	27.302000
3.426186	443.276955	27.402000
3.419806	443.781576	27.502000
3.428913	443.087023	27.602000
3.432663	442.750552	27.705000
3.422858	443.476715	27.802000
3.421846	443.598057	27.902000
3.432300	442.844842	28.002000
3.430447	442.971565	28.102000
3.421141	443.635734	28.202000
3.424852	443.379951	28.302000
3.432837	442.796621	28.402000
3.425837	443.316689	28.502000
3.421781	443.633875	28.602000
3.430808	442.966227	28.702000
3.432732	442.824363	28.802000
3.422690	443.594907	28.902000
3.422737	443.613422	29.002000
3.433695	442.765854	29.102000
3.430926	442.916350	29.202000
3.421329	443.639108	29.302000
3.425923	443.354236	29.402000
3.433845	442.756339	29.502000
3.427102	443.247615	29.602000
3.420605	443.699404	29.702000
3.429784	443.012380	29.802000
3.432735	442.776117	29.902000
3.423465	443.485434	30.002000
3.423501	443.505034	30.102000
3.432692	442.808263	30.202000
3.429281	443.045420	30.302000
3.421062	443.656345	30.402000
3.428139	443.176741	30.502000
3.435076	442.645885	30.602000
3.426024	443.286334	30.702000
3.420677	443.686829	30.802000
3.430575	442.985564	30.902000
3.433866	442.741341	31.002000
3.423788	443.482027	31.102000
3.423014	443.539926	31.206000
3.434210	442.700718	31.302000
3.431104	442.915095	31.402000
3.421677	443.647441	31.502000
3.426741	443.278262	31.602000
3.433894	442.746066	31.702000
3.426677	443.257347	31.802000
3.422857	443.556408	31.902000
3.431542	442.896352	32.002000
3.432102	442.811986	32.102000
3.422220	443.528820	32.202000
3.424506	443.361898	32.302000
3.434619	442.652389	32.402000
3.429863	443.008445	32.502000
3.420348	443.717314	32.602000
3.427206	443.201175	32.702000
3.434558	442.618938	32.802000
3.426047	443.255581	32.902000
3.421871	443.597828	33.002000
3.430884	442.930037	33.102000
3.432754	442.777831	33.202000
3.423127	443.503491	33.302000
3.424719	443.426182	33.402000
3.433373	442.783519	33.502000
3.429098	443.048830	33.602000
3.422252	443.557868	33.702000
3.429206	443.102812	33.802000
3.434161	442.740232	33.902000
3.424713	443.447146	34.002000
3.421635	443.617885	34.102000
3.433009	442.756867	34.202000
3.433640	442.680517	34.302000
3.422531	443.557790	34.402000
3.424112	443.480845	34.502000
3.433984	442.723444	34.602000
3.430079	442.985409	34.702000
3.421411	443.659888	34.802000
3.428394	443.167180	34.902000
3.434720	442.676304	35.002000
3.426299	443.279354	35.102000
3.422941	443.528456	35.202000
3.432008	442.893945	35.302000
3.431600	442.942572	35.402000
3.422857	443.584968	35.502000
3.426079	443.334794	35.602000
3.434810	442.650003	35.702000
3.428992	443.066237	35.802000
3.420733	443.719019	35.902000
3.428772	443.153648	36.002000
3.435009	442.669200	36.102000
3.426218	443.325935	36.202000
3.422448	443.623680	36.302000
3.433109	442.854900	36.402000
3.432894	442.830477	36.502000
3.422918	443.525034	36.602000
3.425626	443.354089	36.702000
3.434237	442.765988	36.802000
3.428959	443.150984	36.902000
3.422503	443.621527	37.002000
3.429803	443.075801	37.102000
3.434188	442.727740	37.202000
3.424856	443.424833	37.302000
3.423408	443.587243	37.402000
3.434034	442.828173	37.502000
3.432813	442.877466	37.602000
3.422715	443.605523	37.702000
3.425825	443.411071	37.802000
3.435111	442.695220	37.902000
3.429547	443.092547	38.002000
3.421888	443.623030	38.102000
3.429474	443.077035	38.204000
3.433807	442.742654	38.302000
3.424561	443.446683	38.402000
3.423053	443.557148	38.502000
3.432746	442.808428	38.608000
3.431199	442.883576	38.702000
3.422387	443.555897	38.802000
3.426422	443.286336	38.902000
3.434553	442.697839	39.002000
3.427289	443.200796	39.102000
3.420752	443.697498	39.202000
3.430338	443.001038	39.302000
3.434615	442.655702	39.402000
3.424123	443.416479	39.502000
3.422201	443.570844	39.602000
3.432372	442.825434	39.702000
3.431163	442.892991	39.802000
3.421778	443.619398	39.902000
3.426226	443.269565	40.002000
3.433635	442.673494	40.102000
3.426945	443.168691	40.202000
3.422275	443.561390	40.302000
3.430276	443.004148	40.402000
3.433291	442.783086	40.502000
3.423029	443.501610	40.602000
3.424643	443.375440	40.702000
3.434577	442.663200	40.802000
3.429713	443.013664	40.902000
3.420946	443.643785	41.002000
3.427428	443.145174	41.102000
3.435317	442.578371	41.202000
3.427070	443.198906	41.302000
3.422306	443.583961	41.402000
3.431325	442.894049	41.502000
3.432920	442.707316	41.602000
3.423094	443.431871	41.702000
3.425127	443.338867	41.802000
3.433485	442.742283	41.902000
3.429180	443.011827	42.002000
3.421211	443.582590	42.102000
3.428720	443.061170	42.202000
3.433485	442.698648	42.302000
3.424562	443.337914	42.402000
3.422156	443.534509	42.502000
3.433722	442.666005	42.602000
3.432857	442.733985	42.702000
3.421658	443.599575	42.803000
3.424780	443.365689	42.902000
3.434610	442.584857	43.002000
3.430051	442.881608	43.102000
3.422085	443.498402	43.202000
3.428715	443.086580	43.302000
3.433846	442.696802	43.402000
3.424827	443.329122	43.502000
3.423411	443.418001	43.602000
3.432693	442.729760	43.702000
3.431144	442.841882	43.802000
3.421924	443.514900	43.902000
3.426744	443.145747	44.002000
3.434587	442.547420	44.102000
3.426743	443.139149	44.202000
3.420776	443.605447	44.302000
3.430627	442.857111	44.402000
3.434091	442.556400	44.502000
3.423724	443.308023	44.602000
3.423493	443.366471	44.702000
3.432514	442.738504	44.802000
3.430019	442.868506	44.902000
3.421848	443.436338	45.002000
3.426763	443.046881	45.102000
3.433217	442.554353	45.202000
3.425789	443.108670	45.302000
3.421084	443.449678	45.402000
3.430289	442.772377	45.502000
3.431514	442.673510	45.602000
3.421642	443.421581	45.702000
3.423858	443.272854	45.802000
3.434153	442.487051	45.902000
3.428545	442.870534	46.002000
3.420021	443.534498	46.102000
3.426867	443.072797	46.202000
3.434393	442.517621	46.302000
3.425163	443.191965	46.402000
3.422158	443.415690	46.502000
3.431166	442.763617	46.602000
3.430826	442.774428	46.702000
3.421416	443.488106	46.802000
3.425600	443.213414	46.902000
3.434225	442.571183	47.002000
3.427787	443.059100	47.102000
3.421290	443.597541	47.202000
3.430639	442.921086	47.302000
3.434339	442.635984	47.402000
3.424240	443.392384	47.502000
3.424187	443.453277	47.602000
3.435133	442.667394	47.702000
3.433136	442.829126	47.802000
3.422645	443.587170	47.902000
3.427167	443.259429	48.002000
3.436237	442.568901	48.102000
3.429315	443.093689	48.202000
3.424007	443.528310	48.302000
3.432351	442.909860	48.402000
3.434214	442.769674	48.502000
3.425140	443.455575	48.602000
3.426019	443.437202	48.702000
3.436031	442.705226	48.802000
3.431136	443.030795	48.902000
3.423093	443.614128	49.002000
3.430784	443.100982	49.102000
3.436722	442.693839	49.202000
3.427765	443.347086	49.302000
3.423745	443.634330	49.402000
3.434541	442.801874	49.502000
3.435929	442.748992	49.602000
3.425335	443.569923	49.702000
3.428357	443.370765	49.802000
3.436603	442.742895	49.902000
3.430719	443.166024	50.002000
3.424842	443.631622	50.102000
3.433500	442.992068	50.202000
3.437105	442.705707	50.302000
3.426597	443.451627	50.402000
3.427006	443.446102	50.502000
3.437570	442.679745	50.602000
3.433980	442.963576	50.702000
3.424358	443.646846	50.802000
3.430378	443.197369	50.902000
3.438821	442.549534	51.002000
3.430776	443.186026	51.102000
3.424403	443.699995	51.202000
3.433445	443.021902	51.302000
3.436718	442.733373	51.402000
3.427183	443.451438	51.502000
3.428494	443.372477	51.602000
3.437032	442.757971	51.702000
3.431796	443.106108	51.802000
3.424488	443.614915	51.902000
3.432632	443.048986	52.002000
3.438023	442.674964	52.102000
3.428247	443.422560	52.202000
3.426240	443.551416	52.302000
3.437018	442.744633	52.402000
3.436216	442.780673	52.502000
3.425767	443.596313	52.602000
3.429548	443.346644	52.702000
3.438932	442.629025	52.802000
3.432239	443.097319	52.902000
3.425891	443.578794	53.002000
3.433579	443.037242	53.102000
3.437186	442.743912	53.202000
3.428884	443.345009	53.302000
3.428868	443.355882	53.402000
3.437769	442.738025	53.502000
3.434716	442.999975	53.602000
3.425624	443.634569	53.702000
3.431685	443.158272	53.802000
3.439467	442.579215	53.902000
3.431184	443.206412	54.002000
3.425658	443.647762	54.102000
3.435434	442.943774	54.202000
3.438277	442.673954	54.302000
3.427784	443.433235	54.402000
3.428526	443.412877	54.502000
3.437708	442.746168	54.602000
3.434878	442.916000	54.702000
3.426974	443.508543	54.802000
3.433118	443.068569	54.902000
3.437950	442.727658	55.002000
3.429941	443.329841	55.102000
3.426863	443.545913	55.202000
3.437162	442.747833	55.307000
3.437222	442.737426	55.402000
3.426667	443.552683	55.502000
3.429600	443.398455	55.602000
3.439576	442.653656	55.702000
3.434234	443.015138	55.802000
3.426131	443.606731	55.902000
3.433692	443.070658	56.002000
