probe voltage (V), probe current (A), resistance (9.9e37 if not enabled) , timestamp , status word ,
-3.500000E+01,-2.551631E-07,+9.910000E+37,+2.388359E+03,+2.150800E+04,
-3.490000E+01,-2.299073E-07,+9.910000E+37,+2.389418E+03,+2.150800E+04,
-3.480000E+01,-2.147538E-07,+9.910000E+37,+2.390478E+03,+2.150800E+04,
-3.470000E+01,-2.091975E-07,+9.910000E+37,+2.391539E+03,+2.150800E+04,
-3.460000E+01,-1.975798E-07,+9.910000E+37,+2.392618E+03,+2.150800E+04,
-3.450000E+01,-1.894980E-07,+9.910000E+37,+2.393678E+03,+2.150800E+04,
-3.440000E+01,-1.748495E-07,+9.910000E+37,+2.394754E+03,+2.150800E+04,
-3.430000E+01,-1.708086E-07,+9.910000E+37,+2.395832E+03,+2.150800E+04,
-3.420000E+01,-1.591908E-07,+9.910000E+37,+2.396918E+03,+2.150800E+04,
-3.410000E+01,-1.485834E-07,+9.910000E+37,+2.397977E+03,+2.150800E+04,
-3.400000E+01,-1.384810E-07,+9.910000E+37,+2.399055E+03,+2.150800E+04,
-3.390000E+01,-1.303990E-07,+9.910000E+37,+2.400110E+03,+2.150800E+04,
-3.380000E+01,-1.152457E-07,+9.910000E+37,+2.401170E+03,+2.150800E+04,
-3.370000E+01,-1.031229E-07,+9.910000E+37,+2.402249E+03,+2.150800E+04,
-3.360000E+01,-9.504093E-08,+9.910000E+37,+2.403310E+03,+2.150800E+04,
-3.350000E+01,-8.190788E-08,+9.910000E+37,+2.404387E+03,+2.150800E+04,
-3.340000E+01,-7.433111E-08,+9.910000E+37,+2.405446E+03,+2.150800E+04,
-3.330000E+01,-6.877475E-08,+9.910000E+37,+2.406506E+03,+2.150800E+04,
-3.320000E+01,-5.412647E-08,+9.910000E+37,+2.407567E+03,+2.150800E+04,
-3.310000E+01,-4.604457E-08,+9.910000E+37,+2.408630E+03,+2.150800E+04,
-3.300000E+01,-3.089108E-08,+9.910000E+37,+2.409691E+03,+2.150800E+04,
-3.290000E+01,-2.179894E-08,+9.910000E+37,+2.410754E+03,+2.150800E+04,
-3.280000E+01,-4.119845E-09,+9.910000E+37,+2.411812E+03,+2.150800E+04,
-3.270000E+01,+2.446521E-09,+9.910000E+37,+2.412869E+03,+2.150800E+04,
-3.260000E+01,+5.981982E-09,+9.910000E+37,+2.413930E+03,+2.150800E+04,
-3.250000E+01,+1.557824E-08,+9.910000E+37,+2.414988E+03,+2.150800E+04,
-3.240000E+01,+2.719478E-08,+9.910000E+37,+2.416049E+03,+2.150800E+04,
-3.230000E+01,+3.477071E-08,+9.910000E+37,+2.417128E+03,+2.150800E+04,
-3.220000E+01,+4.285180E-08,+9.910000E+37,+2.418207E+03,+2.150800E+04,
-3.210000E+01,+5.345818E-08,+9.910000E+37,+2.419268E+03,+2.150800E+04,
-3.200000E+01,+6.254937E-08,+9.910000E+37,+2.420327E+03,+2.150800E+04,
-3.190000E+01,+6.861020E-08,+9.910000E+37,+2.421391E+03,+2.150800E+04,
-3.180000E+01,+7.770133E-08,+9.910000E+37,+2.422447E+03,+2.150800E+04,
-3.170000E+01,+8.477227E-08,+9.910000E+37,+2.423505E+03,+2.150800E+04,
-3.160000E+01,+9.638877E-08,+9.910000E+37,+2.424564E+03,+2.150800E+04,
-3.150000E+01,+1.019444E-07,+9.910000E+37,+2.425623E+03,+2.150800E+04,
-3.140000E+01,+1.059850E-07,+9.910000E+37,+2.426683E+03,+2.150800E+04,
-3.130000E+01,+1.186117E-07,+9.910000E+37,+2.427738E+03,+2.150800E+04,
-3.120000E+01,+1.277029E-07,+9.910000E+37,+2.428799E+03,+2.150800E+04,
-3.110000E+01,+1.322484E-07,+9.910000E+37,+2.429855E+03,+2.150800E+04,
-3.100000E+01,+1.423498E-07,+9.910000E+37,+2.430917E+03,+2.150800E+04,
-3.090000E+01,+1.494207E-07,+9.910000E+37,+2.431975E+03,+2.150800E+04,
-3.080000E+01,+1.590169E-07,+9.910000E+37,+2.433033E+03,+2.150800E+04,
-3.070000E+01,+1.660879E-07,+9.910000E+37,+2.434092E+03,+2.150800E+04,
-3.060000E+01,+1.787145E-07,+9.910000E+37,+2.435149E+03,+2.150800E+04,
-3.050000E+01,+1.842703E-07,+9.910000E+37,+2.436229E+03,+2.150800E+04,
-3.040000E+01,+1.928561E-07,+9.910000E+37,+2.437285E+03,+2.150800E+04,
-3.030000E+01,+1.989172E-07,+9.910000E+37,+2.438344E+03,+2.150800E+04,
-3.020000E+01,+2.085133E-07,+9.910000E+37,+2.439407E+03,+2.150800E+04,
-3.010000E+01,+2.090181E-07,+9.910000E+37,+2.440469E+03,+2.150800E+04,
-3.000000E+01,+2.256855E-07,+9.910000E+37,+2.441527E+03,+2.150800E+04

current through plasma (-mA) <tab> voltage across plasma (-V) <tab> time (sec)
1.935416	674.306378	0.004000
1.938653	674.103711	0.104000
1.944839	673.673495	0.204000
1.933526	674.496404	0.304000
1.933362	674.533710	0.404000
1.944195	673.646495	0.504000
1.939271	674.028536	0.604000
1.932317	674.583789	0.704000
1.941088	673.957344	0.804000
1.942629	673.858109	0.904000
1.931713	674.579082	1.004000
1.935843	674.276198	1.104000
1.946015	673.548592	1.204000
1.936531	674.300306	1.304000
1.932782	674.623772	1.404000
1.943094	673.763233	1.504000
1.941115	673.867216	1.604000
1.932675	674.519830	1.704000
1.940187	674.020852	1.804000
1.944840	673.732657	1.904000
1.933078	674.500165	2.004000
1.934410	674.408128	2.104000
1.945934	673.580219	2.204000
1.939203	674.094664	2.304000
1.932975	674.578410	2.404000
1.942839	673.743007	2.504000
1.942578	673.776834	2.604000
1.931682	674.664011	2.704000
1.937514	674.244128	2.804000
1.946161	673.556470	2.904000
1.937123	674.123237	3.004000
1.932465	674.538349	3.104000
1.943640	673.791108	3.204000
1.940506	674.037586	3.304000
1.932153	674.622036	3.404000
1.940334	673.910412	3.504000
1.944968	673.584169	3.604000
1.933039	674.560654	3.704000
1.933996	674.539888	3.804000
1.944244	673.772065	3.904000
1.936715	674.206139	4.004000
1.931762	674.614430	4.104000
1.941808	673.915955	4.204000
1.942559	673.853927	4.304000
1.931125	674.708747	4.404000
1.936642	674.255297	4.504000
1.944493	673.692869	4.604000
1.935306	674.407559	4.704000
1.933917	674.500324	4.805000
1.944840	673.674953	4.904000
1.938910	674.052886	5.004000
1.931731	674.660556	5.104000
1.940466	674.068602	5.204000
1.944116	673.736394	5.304000
1.933125	674.532965	5.404000
1.935318	674.338918	5.504000
1.943810	673.743882	5.604000
1.937593	674.217103	5.704000
1.932628	674.605606	5.804000
1.943301	673.822564	5.904000
1.941633	673.850996	6.004000
1.931031	674.665486	6.104000
1.938380	674.165022	6.204000
1.945577	673.649717	6.304000
1.935520	674.419847	6.404000
1.934309	674.432545	6.504000
1.945278	673.615429	6.604000
1.939454	674.059334	6.704000
1.931550	674.695601	6.804000
1.942176	673.928848	6.904000
1.943125	673.770270	7.004000
1.932484	674.567668	7.104000
1.937296	674.240353	7.204000
1.945426	673.667271	7.304000
1.935847	674.370594	7.404000
1.933152	674.473891	7.504000
1.944847	673.633343	7.604000
1.940982	673.962245	7.704000
1.930841	674.781106	7.804000
1.939761	674.098347	7.904000
1.943887	673.654425	8.004000
1.933155	674.497061	8.104000
1.936459	674.355611	8.204000
1.945553	673.704580	8.304000
1.937953	674.223970	8.404000
1.930876	674.640561	8.504000
1.941897	673.895012	8.604000
1.942163	673.919892	8.704000
1.932053	674.685645	8.804000
1.939271	674.143643	8.904000
1.944680	673.626966	9.004000
1.933770	674.492799	9.104000
1.934057	674.539747	9.204000
1.945040	673.687660	9.304000
1.939718	674.078899	9.404000
1.931813	674.587217	9.504000
1.941458	673.925632	9.604000
1.944302	673.752432	9.704000
1.933068	674.565745	9.804000
1.937693	674.216448	9.904000
1.945363	673.598492	10.004000
1.935987	674.354747	10.104000
1.932632	674.620749	10.204000
1.944183	673.737158	10.304000
1.941099	673.921492	10.404000
1.932097	674.552168	10.504000
1.939144	674.083916	10.604000
1.944068	673.760839	10.704000
1.932028	674.633907	10.804000
1.936270	674.344165	10.904000
1.945240	673.588442	11.004000
1.937088	674.212776	11.104000
1.932831	674.588614	11.204000
1.942678	673.901958	11.304000
1.940957	674.016847	11.404000
1.931228	674.649897	11.504000
1.938921	674.079828	11.604000
1.946526	673.526918	11.704000
1.935071	674.405484	11.804000
1.933280	674.594260	11.904000
1.943354	673.736566	12.004000
1.938889	674.065682	12.104000
1.932445	674.582265	12.204000
1.942183	673.892924	12.304000
1.943239	673.812493	12.404000
1.930817	674.639192	12.505000
1.936026	674.339106	12.604000
1.944364	673.770838	12.704000
1.936577	674.309351	12.804000
1.933029	674.581198	12.904000
1.943295	673.718460	13.004000
1.940150	674.000470	13.104000
1.931565	674.705015	13.204000
1.940307	674.085543	13.304000
1.943784	673.762370	13.404000
1.933404	674.416184	13.504000
1.935149	674.379663	13.604000
1.945420	673.680271	13.704000
1.936708	674.329922	13.804000
1.932768	674.613837	13.904000
1.943427	673.711992	14.004000
1.942333	673.848979	14.104000
1.932171	674.648827	14.204000
1.938405	674.212073	14.304000
1.945424	673.653921	14.404000
1.934307	674.403376	14.504000
1.934171	674.496172	14.604000
1.944361	673.752465	14.704000
1.938449	674.153304	14.804000
1.931423	674.680874	14.904000
1.941157	673.916983	15.004000
1.943303	673.801809	15.104000
1.933458	674.567766	15.204000
1.937708	674.258260	15.304000
1.944219	673.737579	15.404000
1.934783	674.357915	15.504000
1.933151	674.567432	15.604000
1.943988	673.778625	15.704000
1.940968	673.982145	15.804000
1.931246	674.705914	15.904000
1.939161	674.054317	16.004000
1.942555	673.821599	16.104000
1.931967	674.678458	16.204000
1.937170	674.292812	16.304000
1.945307	673.571862	16.404000
1.935762	674.328492	16.504000
1.931782	674.636886	16.604000
1.942539	673.862933	16.704000
1.941283	673.997501	16.804000
1.930753	674.690666	16.904000
1.939134	674.092377	17.004000
1.944694	673.685362	17.104000
1.933733	674.502107	17.204000
1.934617	674.470818	17.308000
1.944557	673.644458	17.404000
1.938743	674.085147	17.504000
1.931869	674.651709	17.604000
1.941931	673.951249	17.704000
1.943114	673.866333	17.804000
1.931205	674.631702	17.904000
1.938065	674.162684	18.004000
1.945309	673.671615	18.104000
1.935995	674.431625	18.204000
1.932867	674.535711	18.304000
1.943671	673.733485	18.404000
1.940711	673.980885	18.504000
1.931787	674.664213	18.604000
1.941007	674.028212	18.704000
1.943297	673.739598	18.804000
1.932830	674.589491	18.904000
1.935895	674.373414	19.004000
1.945500	673.677956	19.104000
1.937469	674.248753	19.204000
1.932841	674.513262	19.304000
1.943276	673.806052	19.404000
1.941952	673.947866	19.504000
1.931795	674.713628	19.604000
1.938721	674.063428	19.704000
1.945105	673.612038	19.804000
1.934955	674.428078	19.904000
1.934146	674.555431	20.004000
1.944157	673.814127	20.104000
1.937507	674.188203	20.204000
1.931415	674.628833	20.304000
1.942247	673.891537	20.404000
1.942906	673.896119	20.504000
1.932072	674.701715	20.604000
1.935659	674.330839	20.704000
1.944468	673.681659	20.804000
1.935043	674.423390	20.904000
1.933745	674.569664	21.004000
1.944333	673.772876	21.104000
1.939467	674.025154	21.204000
1.930617	674.727694	21.304000
1.939996	674.121991	21.404000
1.943912	673.813429	21.504000
1.932900	674.556263	21.604000
1.936694	674.245121	21.704000
1.944824	673.721552	21.804000
1.936231	674.399993	21.905000
1.932597	674.689286	22.004000
1.944206	673.748906	22.104000
1.941670	673.836244	22.204000
1.932079	674.648206	22.304000
1.939397	674.164495	22.404000
1.945190	673.717629	22.504000
1.934464	674.390070	22.604000
1.934698	674.437125	22.704000
1.944641	673.733682	22.804000
1.938565	674.186748	22.904000
1.931934	674.695941	23.005000
1.940855	673.931381	23.104000
1.943386	673.793921	23.204000
1.933200	674.619184	23.304000
1.937654	674.283628	23.404000
1.944788	673.735977	23.504000
1.934439	674.389374	23.604000
1.932094	674.661133	23.704000
1.943704	673.832798	23.804000
1.941219	673.994211	23.904000
1.932048	674.662947	24.004000
1.939162	674.031984	24.104000
1.943187	673.822405	24.204000
1.932804	674.618173	24.304000
1.935437	674.430456	24.404000
1.945469	673.693857	24.504000
1.937506	674.192482	24.604000
1.931311	674.725634	24.704000
1.941751	673.975378	24.804000
1.941795	673.952049	24.904000
1.931516	674.631239	25.004000
1.938523	674.238488	25.104000
1.945607	673.687482	25.204000
1.934631	674.464127	25.304000
1.932763	674.604677	25.404000
1.943709	673.755162	25.504000
1.939600	674.129372	25.604000
1.932255	674.673003	25.704000
1.942019	673.950302	25.804000
1.943814	673.786784	25.904000
1.931943	674.603190	26.004000
1.936382	674.354497	26.104000
1.946310	673.629241	26.204000
1.936975	674.348834	26.304000
1.933195	674.596966	26.404000
1.943538	673.760090	26.505000
1.941043	673.978541	26.604000
1.932589	674.642995	26.704000
1.939966	674.123884	26.804000
1.945071	673.745760	26.904000
1.933279	674.517141	27.004000
1.934455	674.479898	27.104000
1.945103	673.707952	27.204000
1.939072	674.173697	27.304000
1.932078	674.702765	27.404000
1.942027	673.906835	27.504000
1.942107	673.926874	27.604000
1.931373	674.728697	27.704000
1.937947	674.294036	27.804000
1.945500	673.649295	27.904000
1.935282	674.338731	28.004000
1.933340	674.590372	28.104000
1.943491	673.876608	28.204000
1.939081	674.204964	28.304000
1.930868	674.752189	28.404000
1.941356	673.885815	28.504000
1.944433	673.745920	28.604000
1.932674	674.701016	28.704000
1.935960	674.455796	28.804000
1.944485	673.751499	28.904000
1.935943	674.289188	29.004000
1.932990	674.594575	29.104000
1.944281	673.818594	29.204000
1.941492	674.022949	29.304000
1.930906	674.680093	29.404000
1.939080	674.163269	29.504000
1.944262	673.787590	29.604000
1.934369	674.528516	29.704000
1.935994	674.378290	29.804000
1.945074	673.632902	29.904000
1.937301	674.292618	30.004000
1.932400	674.697175	30.104000
1.943249	673.857215	30.204000
1.941778	673.803980	30.304000
1.932593	674.622212	30.404000
1.939108	674.211655	30.504000
1.945502	673.725090	30.604000
1.933764	674.434884	30.704000
1.934313	674.475251	30.804000
1.945502	673.706924	30.904000
1.939251	674.186096	31.004000
1.931469	674.745833	31.104000
1.941032	673.966584	31.204000
1.942925	673.889895	31.304000
1.932637	674.688190	31.404000
1.938700	674.263200	31.504000
1.944631	673.754494	31.604000
1.934585	674.440098	31.704000
1.932768	674.697987	31.804000
1.943930	673.871320	31.904000
1.939947	674.115246	32.004000
1.932377	674.621251	32.104000
1.940815	673.979918	32.204000
1.943092	673.901683	32.304000
1.932164	674.750669	32.406000
1.935709	674.454023	32.504000
1.945676	673.648584	32.604000
1.936704	674.274968	32.704000
1.932890	674.640120	32.804000
1.942894	673.932719	32.904000
1.941237	674.056729	33.004000
1.931536	674.713779	33.104000
1.939366	674.115680	33.204000
1.945300	673.698150	33.304000
1.934810	674.487227	33.404000
1.935130	674.503674	33.504000
1.944130	673.806568	33.604000
1.937900	674.216940	33.704000
1.932659	674.662200	33.804000
1.943040	673.899940	33.904000
1.943933	673.810913	34.004000
1.932548	674.671110	34.104000
1.937045	674.310626	34.204000
1.945233	673.733681	34.304000
1.936160	674.402369	34.404000
1.934736	674.528384	34.504000
1.944641	673.774627	34.604000
1.939936	674.060103	34.704000
1.931670	674.727060	34.806000
1.940635	674.062213	34.904000
1.944315	673.793440	35.004000
1.932936	674.620398	35.104000
1.935429	674.383148	35.204000
1.944745	673.720601	35.304000
1.936801	674.357332	35.404000
1.932202	674.716509	35.504000
1.942803	673.807487	35.604000
1.941572	673.973131	35.704000
1.931653	674.723249	35.804000
1.938639	674.228928	35.904000
1.943273	673.793116	36.004000
1.934212	674.517101	36.104000
1.934959	674.514503	36.204000
1.944796	673.773062	36.304000
1.937081	674.223139	36.404000
1.930895	674.762553	36.504000
1.941484	674.050991	36.604000
1.943171	673.895692	36.704000
1.931976	674.608672	36.804000
1.937675	674.289495	36.904000
1.945038	673.742686	37.004000
1.934724	674.472431	37.104000
1.933258	674.506663	37.204000
1.944952	673.759936	37.304000
1.940498	674.131956	37.404000
1.932515	674.667332	37.504000
1.940432	673.966833	37.604000
1.943376	673.847946	37.704000
1.932539	674.689484	37.804000
1.937004	674.367494	37.904000
1.945700	673.612249	38.004000
1.938759	674.215282	38.104000
1.932108	674.731624	38.204000
1.942044	673.978626	38.305000
1.943012	673.773871	38.404000
1.933632	674.562377	38.504000
1.936456	674.427791	38.604000
1.945176	673.788102	38.704000
1.937659	674.219050	38.804000
1.931850	674.693058	38.904000
1.942037	673.957416	39.004000
1.944160	673.809561	39.104000
1.933203	674.653945	39.204000
1.935271	674.417605	39.304000
1.944489	673.769966	39.404000
1.937821	674.273949	39.504000
1.932058	674.708250	39.604000
1.941009	674.032249	39.704000
1.943105	673.842799	39.804000
1.932689	674.647286	39.904000
1.935679	674.484045	40.004000
1.945414	673.744408	40.104000
1.938462	674.199291	40.204000
1.932191	674.652485	40.304000
1.940328	674.093293	40.404000
1.942975	673.935102	40.504000
1.932976	674.717766	40.604000
1.935859	674.450557	40.704000
1.944609	673.687327	40.804000
1.937706	674.289358	40.904000
1.930913	674.803214	41.004000
1.940984	674.073838	41.104000
1.942883	673.876199	41.204000
1.933266	674.623883	41.304000
1.936479	674.436796	41.404000
1.944721	673.847003	41.504000
1.936089	674.312397	41.604000
1.930787	674.781860	41.704000
1.942146	673.981926	41.804000
1.944225	673.825837	41.904000
1.932765	674.587735	42.004000
1.934938	674.533642	42.104000
1.944489	673.848083	42.204000
1.937600	674.270414	42.304000
1.930980	674.690042	42.404000
1.942322	673.980887	42.504000
1.943493	673.927831	42.604000
1.933381	674.681279	42.704000
1.935237	674.457753	42.804000
1.944840	673.713783	42.904000
1.938345	674.228513	43.004000
1.932619	674.697103	43.104000
1.942047	673.975508	43.204000
1.943591	673.817537	43.304000
1.932961	674.694688	43.404000
1.936423	674.471345	43.504000
1.945777	673.748187	43.604000
1.938249	674.190254	43.704000
1.931194	674.754152	43.804000
1.941326	674.073486	43.904000
1.944238	673.885079	44.004000
1.933562	674.611322	44.104000
1.935139	674.402775	44.204000
1.944890	673.748330	44.304000
1.938412	674.311540	44.404000
1.931701	674.812208	44.504000
1.941858	673.972614	44.604000
1.944059	673.793492	44.704000
1.933157	674.684365	44.804000
1.934779	674.597184	44.904000
1.944842	673.830745	45.004000
1.937854	674.210433	45.104000
1.931928	674.683273	45.204000
1.942073	674.036234	45.304000
1.944261	673.903377	45.404000
1.932759	674.716448	45.504000
1.934478	674.496562	45.604000
1.944696	673.733133	45.704000
1.939001	674.243041	45.804000
1.932913	674.724644	45.904000
1.941467	674.111093	46.004000
1.942700	673.908083	46.104000
1.931633	674.728048	46.204000
1.935153	674.548386	46.304000
1.945483	673.776727	46.404000
1.939189	674.262428	46.504000
1.931846	674.737241	46.605000
1.940857	674.086203	46.704000
1.942978	673.985673	46.805000
1.933086	674.717845	46.905000
1.936476	674.421927	47.004000
1.945111	673.732539	47.104000
1.937803	674.306168	47.204000
1.931684	674.831179	47.304000
1.941268	674.133342	47.404000
1.943983	673.866724	47.504000
1.932490	674.650599	47.604000
1.935600	674.468333	47.709000
1.944852	673.839013	47.804000
1.937751	674.383669	47.904000
1.932653	674.762258	48.004000
1.942716	673.959598	48.104000
1.943363	673.888432	48.204000
1.932166	674.772802	48.304000
1.936560	674.447067	48.404000
1.946016	673.745679	48.504000
1.937782	674.327859	48.604000
1.932847	674.685082	48.704000
1.943265	673.938749	48.804000
1.942507	673.979992	48.904000
1.932165	674.744608	49.004000
1.937322	674.326853	49.104000
1.946512	673.648574	49.204000
1.937435	674.367167	49.304000
1.932929	674.713705	49.404000
1.943307	673.975481	49.504000
1.940876	674.001116	49.612000
1.933109	674.835466	49.704000
1.938753	674.318969	49.804000
1.946402	673.702378	49.904000
1.936395	674.476488	50.004000
1.931629	674.768612	50.104000
1.942790	673.906373	50.204000
1.943395	673.860849	50.304000
1.933409	674.656754	50.404000
1.937459	674.410047	50.504000
1.944300	673.805818	50.611000
1.935598	674.512929	50.704000
1.932274	674.745257	50.804000
1.943202	673.949534	50.904000
1.943224	673.952149	51.004000
1.931927	674.705441	51.104000
1.936434	674.418529	51.204000
1.944808	673.844771	51.304000
1.936908	674.461003	51.404000
1.932599	674.786136	51.504000
1.942826	673.895453	51.604000
1.942328	673.932281	51.704000
1.931839	674.778114	51.804000
1.936506	674.501303	51.904000
1.945349	673.860382	52.004000
1.936334	674.398900	52.104000
1.931649	674.743355	52.204000
1.942068	674.024297	52.304000
1.942551	674.042461	52.404000
1.931693	674.843899	52.504000
1.936472	674.383038	52.604000
1.945230	673.750270	52.704000
1.936794	674.436124	52.804000
1.931822	674.825526	52.904000
1.942990	674.018564	53.004000
1.942679	673.900723	53.104000
1.932207	674.716729	53.204000
1.936559	674.490422	53.304000
1.944917	673.886003	53.404000
1.936342	674.492459	53.504000
1.931757	674.732435	53.604000
1.942965	673.942013	53.704000
1.943428	673.962361	53.804000
1.932268	674.847063	53.904000
1.937039	674.465277	54.004000
1.944697	673.792930	54.104000
1.937218	674.339412	54.204000
1.933010	674.732698	54.304000
1.943725	673.941184	54.404000
1.942821	674.005747	54.504000
1.931739	674.743390	54.604000
1.936784	674.445340	54.704000
1.946126	673.790758	54.804000
1.938015	674.371896	54.904000
1.933411	674.702073	55.004000
1.942435	673.972423	55.104000
1.942237	674.019548	55.204000
1.932418	674.811188	55.304000
1.938071	674.395145	55.404000
1.946326	673.752784	55.504000
1.936708	674.383017	55.604000
1.932550	674.726339	55.706000
1.943143	673.990963	55.804000
1.942802	674.019856	55.904000
1.932540	674.797083	56.004000
