probe voltage (V), probe current (A), resistance (9.9e37 if not enabled) , timestamp , status word ,
-3.300000E+01,-7.837227E-08,+9.910000E+37,+2.255545E+03,+2.150800E+04,
-3.290000E+01,-4.857032E-08,+9.910000E+37,+2.256604E+03,+2.150800E+04,
-3.280000E+01,-3.543726E-08,+9.910000E+37,+2.257663E+03,+2.150800E+04,
-3.270000E+01,-2.583997E-08,+9.910000E+37,+2.258722E+03,+2.150800E+04,
-3.260000E+01,-1.523248E-08,+9.910000E+37,+2.259808E+03,+2.150800E+04,
-3.250000E+01,-1.018128E-08,+9.910000E+37,+2.260892E+03,+2.150800E+04,
-3.240000E+01,+6.487076E-09,+9.910000E+37,+2.261951E+03,+2.150800E+04,
-3.230000E+01,+1.305296E-08,+9.910000E+37,+2.263011E+03,+2.150800E+04,
-3.220000E+01,+2.517460E-08,+9.910000E+37,+2.264069E+03,+2.150800E+04,
-3.210000E+01,+3.022525E-08,+9.910000E+37,+2.265129E+03,+2.150800E+04,
-3.200000E+01,+3.477083E-08,+9.910000E+37,+2.266188E+03,+2.150800E+04,
-3.190000E+01,+4.588234E-08,+9.910000E+37,+2.267247E+03,+2.150800E+04,
-3.180000E+01,+5.497357E-08,+9.910000E+37,+2.268306E+03,+2.150800E+04,
-3.170000E+01,+6.406475E-08,+9.910000E+37,+2.269363E+03,+2.150800E+04,
-3.160000E+01,+7.164077E-08,+9.910000E+37,+2.270420E+03,+2.150800E+04,
-3.150000E+01,+7.820665E-08,+9.910000E+37,+2.271481E+03,+2.150800E+04,
-3.140000E+01,+8.426744E-08,+9.910000E+37,+2.272542E+03,+2.150800E+04,
-3.130000E+01,+9.487400E-08,+9.910000E+37,+2.273599E+03,+2.150800E+04,
-3.120000E+01,+1.029550E-07,+9.910000E+37,+2.274673E+03,+2.150800E+04,
-3.110000E+01,+1.140665E-07,+9.910000E+37,+2.275729E+03,+2.150800E+04,
-3.100000E+01,+1.080055E-07,+9.910000E+37,+2.276816E+03,+2.150800E+04,
-3.090000E+01,+1.277033E-07,+9.910000E+37,+2.277879E+03,+2.150800E+04,
-3.080000E+01,+1.312387E-07,+9.910000E+37,+2.278958E+03,+2.150800E+04,
-3.070000E+01,+1.448755E-07,+9.910000E+37,+2.280018E+03,+2.150800E+04,
-3.060000E+01,+1.509364E-07,+9.910000E+37,+2.281076E+03,+2.150800E+04,
-3.050000E+01,+1.539667E-07,+9.910000E+37,+2.282152E+03,+2.150800E+04,
-3.040000E+01,+1.701289E-07,+9.910000E+37,+2.283211E+03,+2.150800E+04,
-3.030000E+01,+1.792202E-07,+9.910000E+37,+2.284293E+03,+2.150800E+04,
-3.020000E+01,+1.832608E-07,+9.910000E+37,+2.285351E+03,+2.150800E+04,
-3.010000E+01,+1.958873E-07,+9.910000E+37,+2.286409E+03,+2.150800E+04,
-3.000000E+01,+2.034633E-07,+9.910000E+37,+2.287468E+03,+2.150800E+04,
-2.990000E+01,+2.135647E-07,+9.910000E+37,+2.288546E+03,+2.150800E+04,
-2.980000E+01,+2.211408E-07,+9.910000E+37,+2.289604E+03,+2.150800E+04,
-2.970000E+01,+2.282117E-07,+9.910000E+37,+2.290666E+03,+2.150800E+04,
-2.960000E+01,+2.367978E-07,+9.910000E+37,+2.291723E+03,+2.150800E+04,
-2.950000E+01,+2.468993E-07,+9.910000E+37,+2.292786E+03,+2.150800E+04,
-2.940000E+01,+2.549802E-07,+9.910000E+37,+2.293843E+03,+2.150800E+04,
-2.930000E+01,+2.620511E-07,+9.910000E+37,+2.294922E+03,+2.150800E+04,
-2.920000E+01,+2.706374E-07,+9.910000E+37,+2.295981E+03,+2.150800E+04,
-2.910000E+01,+2.802334E-07,+9.910000E+37,+2.297039E+03,+2.150800E+04,
-2.900000E+01,+2.893246E-07,+9.910000E+37,+2.298116E+03,+2.150800E+04,
-2.890000E+01,+3.059920E-07,+9.910000E+37,+2.299175E+03,+2.150800E+04,
-2.880000E+01,+3.160933E-07,+9.910000E+37,+2.300236E+03,+2.150800E+04,
-2.870000E+01,+3.110424E-07,+9.910000E+37,+2.301296E+03,+2.150800E+04,
-2.860000E+01,+3.221541E-07,+9.910000E+37,+2.302354E+03,+2.150800E+04,
-2.850000E+01,+3.297300E-07,+9.910000E+37,+2.303433E+03,+2.150800E+04,
-2.840000E+01,+3.322551E-07,+9.910000E+37,+2.304507E+03,+2.150800E+04,
-2.830000E+01,+3.418515E-07,+9.910000E+37,+2.305568E+03,+2.150800E+04,
-2.820000E+01,+3.580139E-07,+9.910000E+37,+2.306625E+03,+2.150800E+04,
-2.810000E+01,+3.605390E-07,+9.910000E+37,+2.307687E+03,+2.150800E+04,
-2.800000E+01,+3.716506E-07,+9.910000E+37,+2.308744E+03,+2.150800E+04

current through plasma (-mA) <tab> voltage across plasma (-V) <tab> time (sec)
1.932015	674.415701	0.002000
1.933629	674.264789	0.102000
1.940180	673.854135	0.202000
1.929464	674.636135	0.302000
1.929115	674.654232	0.402000
1.938463	673.907355	0.508000
1.932903	674.378914	0.602000
1.924566	675.029079	0.702000
1.938413	673.991124	0.802000
1.941191	673.763675	0.902000
1.928536	674.652099	1.002000
1.933859	674.277520	1.102000
1.936935	674.102814	1.202000
1.929054	674.683965	1.302000
1.927710	674.801936	1.402000
1.939528	673.869788	1.502000
1.935802	674.090041	1.602000
1.926882	674.826358	1.702000
1.933565	674.376546	1.802000
1.939999	673.901751	1.902000
1.927234	674.774343	2.002000
1.932787	674.311572	2.102000
1.942464	673.621326	2.202000
1.932924	674.378219	2.302000
1.929677	674.658442	2.402000
1.940594	673.815991	2.502000
1.938932	673.854483	2.603000
1.931115	674.448748	2.702000
1.937149	674.073132	2.802000
1.941749	673.751777	2.902000
1.930506	674.543224	3.002000
1.931674	674.410776	3.102000
1.939620	673.868829	3.202000
1.936405	674.144415	3.302000
1.929895	674.641554	3.402000
1.936216	674.098768	3.502000
1.939274	673.825109	3.602000
1.928694	674.685743	3.702000
1.929245	674.726352	3.802000
1.938447	673.995606	3.902000
1.934525	674.187427	4.002000
1.928964	674.571092	4.102000
1.939317	673.922877	4.202000
1.930895	674.607540	4.302000
1.926110	674.946644	4.402000
1.937645	673.990111	4.502000
1.938557	673.878647	4.602000
1.926725	674.858688	4.702000
1.930412	674.616781	4.802000
1.942019	673.755474	4.902000
1.933633	674.278054	5.002000
1.929130	674.618829	5.102000
1.937471	674.060742	5.202000
1.937521	674.058127	5.302000
1.925726	674.934262	5.402000
1.933489	674.327505	5.502000
1.943724	673.556646	5.602000
1.930296	674.627888	5.702000
1.929451	674.667264	5.802000
1.942758	673.658809	5.902000
1.932298	674.406001	6.002000
1.927999	674.720502	6.102000
1.935090	674.293050	6.202000
1.941506	673.805643	6.302000
1.929855	674.701000	6.402000
1.933624	674.388932	6.502000
1.940676	673.867816	6.602000
1.929765	674.628177	6.702000
1.929071	674.626908	6.802000
1.942931	673.696660	6.902000
1.938693	674.019853	7.002000
1.931710	674.531771	7.102000
1.936492	674.133492	7.202000
1.940779	673.788451	7.302000
1.933398	674.409517	7.402000
1.933474	674.360394	7.502000
1.941986	673.740763	7.602000
1.933750	674.329020	7.702000
1.931288	674.529180	7.802000
1.939497	673.888136	7.902000
1.935797	674.140992	8.004000
1.930350	674.578629	8.102000
1.933264	674.376233	8.202000
1.940944	673.812352	8.302000
1.929283	674.619955	8.403000
1.928547	674.654537	8.502000
1.937796	674.035022	8.603000
1.936530	674.146202	8.702000
1.926749	674.909663	8.802000
1.935394	674.163444	8.902000
1.937410	673.946299	9.002000
1.925136	674.959047	9.102000
1.936623	674.159704	9.202000
1.937865	674.111685	9.302000
1.931693	674.461998	9.402000
1.926294	674.805049	9.502000
1.942794	673.649444	9.602000
1.936878	674.128771	9.702000
1.924955	675.047507	9.802000
1.934155	674.284898	9.902000
1.940273	673.794327	10.002000
1.928713	674.715529	10.102000
1.930130	674.632346	10.202000
1.944646	673.546678	10.302000
1.932509	674.376806	10.402000
1.927534	674.769681	10.502000
1.941643	673.798437	10.603000
1.938726	673.999706	10.702000
1.928435	674.717929	10.802000
1.935153	674.124931	10.902000
1.946687	673.292079	11.002000
1.932511	674.467524	11.102000
1.933574	674.392773	11.202000
1.941260	673.792531	11.302000
1.934567	674.181512	11.402000
1.929272	674.609707	11.502000
1.938835	673.972370	11.602000
1.940824	673.828381	11.702000
1.928587	674.737274	11.802000
1.932490	674.417043	11.902000
1.939488	673.870733	12.002000
1.929035	674.672595	12.102000
1.931155	674.558633	12.202000
1.943008	673.680896	12.302000
1.933240	674.356339	12.402000
1.926560	674.832600	12.502000
1.934080	674.308740	12.602000
1.942770	673.649412	12.702000
1.926778	674.872811	12.802000
1.932582	674.409121	12.902000
1.942715	673.641646	13.002000
1.933586	674.352104	13.102000
1.929602	674.674208	13.202000
1.938341	674.039857	13.302000
1.936824	674.086662	13.402000
1.929485	674.576066	13.502000
1.931720	674.515954	13.602000
1.939015	673.980812	13.702000
1.931975	674.510895	13.802000
1.931370	674.453266	13.902000
1.942163	673.630683	14.002000
1.934743	674.239768	14.102000
1.930823	674.611949	14.202000
1.944160	673.633195	14.302000
1.940859	673.749307	14.402000
1.926919	674.750733	14.502000
1.936562	674.121843	14.602000
1.943856	673.629871	14.702000
1.927798	674.825918	14.805000
1.928584	674.664029	14.902000
1.941196	673.692536	15.002000
1.936167	674.132105	15.102000
1.929044	674.711227	15.202000
1.937811	674.063856	15.302000
1.938206	673.915294	15.402000
1.931573	674.425221	15.502000
1.934091	674.345839	15.602000
1.943131	673.673769	15.702000
1.931474	674.523896	15.802000
1.928157	674.662694	15.902000
1.941295	673.724425	16.002000
1.935139	674.257891	16.102000
1.931689	674.510224	16.202000
1.937994	674.020377	16.302000
1.938353	673.881782	16.402000
1.928980	674.632639	16.502000
1.936277	674.194495	16.602000
1.941747	673.770824	16.702000
1.932927	674.405357	16.802000
1.930538	674.517993	16.902000
1.938137	673.969086	17.002000
1.939012	673.915358	17.102000
1.931170	674.522958	17.202000
1.936166	674.191727	17.302000
1.937421	674.035635	17.402000
1.930646	674.522319	17.502000
1.932873	674.409066	17.602000
1.944188	673.557180	17.702000
1.931192	674.561528	17.802000
1.929961	674.576855	17.902000
1.936567	674.104054	18.002000
1.938215	673.975699	18.102000
1.927420	674.779618	18.202000
1.934464	674.316160	18.305000
1.940443	673.780302	18.402000
1.930313	674.537562	18.502000
1.932344	674.419820	18.602000
1.941906	673.764579	18.702000
1.934033	674.332001	18.802000
1.928834	674.621801	18.902000
1.941193	673.699960	19.003000
1.937933	674.024954	19.102000
1.929132	674.737991	19.202000
1.938048	674.082707	19.302000
1.938116	673.936503	19.402000
1.931993	674.385016	19.502000
1.930641	674.581685	19.602000
1.940591	673.898787	19.702000
1.935421	674.277828	19.802000
1.928298	674.679427	19.902000
1.940218	673.795869	20.002000
1.938614	673.979407	20.102000
1.928415	674.779830	20.202000
1.932866	674.460236	20.302000
1.937328	673.998946	20.402000
1.930246	674.570886	20.502000
1.928928	674.744141	20.602000
1.939578	673.942026	20.702000
1.941218	673.790120	20.802000
1.924470	674.971561	20.902000
1.937616	674.052104	21.002000
1.942035	673.756690	21.102000
1.927729	674.802097	21.202000
1.929887	674.629606	21.302000
1.941636	673.638275	21.402000
1.936688	674.095004	21.502000
1.928538	674.755432	21.602000
1.940028	673.915232	21.702000
1.940593	673.825643	21.802000
1.929352	674.556193	21.902000
1.936290	674.095765	22.002000
1.944229	673.576247	22.102000
1.931616	674.505088	22.202000
1.931176	674.572548	22.302000
1.939690	673.841252	22.402000
1.934386	674.264340	22.502000
1.932401	674.427076	22.602000
1.936829	674.133968	22.702000
1.941159	673.821139	22.802000
1.927455	674.763044	22.902000
1.933458	674.364133	23.002000
1.939445	673.919252	23.102000
1.934593	674.261984	23.202000
1.931859	674.519447	23.303000
1.939389	673.890833	23.402000
1.936707	674.105615	23.502000
1.926060	674.935772	23.602000
1.936823	674.160388	23.702000
1.941045	673.865407	23.802000
1.929288	674.593059	23.902000
1.932540	674.422909	24.002000
1.940364	673.865902	24.102000
1.936680	674.162073	24.202000
1.928679	674.767660	24.302000
1.936529	674.049720	24.402000
1.937437	673.989242	24.502000
1.927896	674.792303	24.602000
1.938103	674.129065	24.711000
1.938529	674.009306	24.802000
1.931345	674.414950	24.902000
1.930953	674.506190	25.002000
1.942605	673.701633	25.102000
1.932289	674.499717	25.202000
1.926021	674.963304	25.302000
1.938625	673.912182	25.402000
1.943645	673.580843	25.502000
1.927832	674.813607	25.602000
1.934142	674.361757	25.702000
1.940413	673.899331	25.802000
1.932135	674.377241	25.902000
1.932380	674.447438	26.002000
1.939884	673.947360	26.102000
1.939298	673.945552	26.202000
1.928326	674.731211	26.302000
1.934888	674.174488	26.402000
1.942192	673.709592	26.502000
1.930869	674.599565	26.602000
1.936013	674.197562	26.702000
1.942770	673.704620	26.802000
1.935558	674.139132	26.902000
1.929156	674.673401	27.002000
1.939619	673.938703	27.102000
1.939082	673.957596	27.202000
1.928469	674.768922	27.302000
1.934735	674.207885	27.402000
1.940853	673.789455	27.502000
1.928757	674.685331	27.602000
1.933560	674.371625	27.702000
1.943132	673.702950	27.802000
1.933659	674.295929	27.902000
1.929098	674.653279	28.002000
1.940280	673.851886	28.102000
1.941142	673.787457	28.202000
1.930908	674.611647	28.302000
1.933990	674.271970	28.402000
1.940493	673.793867	28.502000
1.929981	674.621468	28.602000
1.928764	674.762900	28.702000
1.940628	673.917494	28.802000
1.936221	674.095627	28.902000
1.930096	674.613999	29.002000
1.935082	674.300992	29.102000
1.937192	674.153811	29.202000
1.926543	674.930698	29.302000
1.931275	674.431614	29.402000
1.944023	673.517046	29.502000
1.935064	674.270213	29.602000
1.928817	674.784844	29.702000
1.940387	673.886894	29.802000
1.938359	673.886694	29.902000
1.932255	674.390259	30.002000
1.938086	674.062531	30.102000
1.944241	673.597172	30.202000
1.932034	674.517031	30.302000
1.931961	674.377858	30.402000
1.943952	673.558910	30.502000
1.938675	674.017846	30.602000
1.930040	674.667115	30.702000
1.940497	673.866046	30.802000
1.941511	673.691071	30.902000
1.929679	674.633673	31.002000
1.934018	674.364510	31.102000
1.943137	673.653975	31.202000
1.933476	674.335291	31.302000
1.931999	674.358355	31.402000
1.943903	673.589953	31.502000
1.938777	674.013901	31.602000
1.929438	674.694404	31.702000
1.936340	674.147870	31.802000
1.939848	673.788904	31.902000
1.931582	674.482475	32.002000
1.932952	674.426694	32.102000
1.943782	673.616723	32.202000
1.933119	674.411882	32.302000
1.930478	674.501353	32.402000
1.940618	673.792265	32.502000
1.938932	673.944615	32.602000
1.930962	674.542518	32.702000
1.934476	674.363977	32.802000
1.940433	673.797653	32.902000
1.933607	674.312358	33.002000
1.929270	674.657578	33.102000
1.942948	673.680067	33.202000
1.936481	674.168339	33.302000
1.928460	674.662826	33.402000
1.938980	673.930922	33.502000
1.941620	673.742149	33.602000
1.932004	674.489326	33.702000
1.933587	674.392072	33.802000
1.939884	673.819232	33.902000
1.932786	674.388152	34.002000
1.930427	674.635878	34.102000
1.941546	673.823922	34.202000
1.938827	674.011837	34.302000
1.928869	674.610002	34.402000
1.936868	674.103611	34.502000
1.944806	673.564589	34.602000
1.931373	674.607973	34.702000
1.935945	674.234756	34.802000
1.942422	673.598332	34.902000
1.935017	674.227969	35.002000
1.930199	674.681907	35.102000
1.938792	674.060007	35.202000
1.938301	674.025059	35.302000
1.929220	674.569408	35.402000
1.937496	674.042719	35.502000
1.943500	673.643910	35.602000
1.931651	674.524923	35.702000
1.930692	674.596799	35.802000
1.941688	673.673081	35.902000
1.938144	674.000209	36.002000
1.928734	674.761133	36.102000
1.939418	673.948940	36.202000
1.938368	673.991153	36.302000
1.928937	674.625673	36.402000
1.935891	674.214578	36.502000
1.945462	673.507711	36.602000
1.933075	674.386963	36.702000
1.930404	674.594272	36.802000
1.940364	673.772126	36.902000
1.937191	674.089634	37.002000
1.928355	674.792084	37.102000
1.938271	674.043841	37.202000
1.941285	673.808872	37.302000
1.928520	674.644048	37.402000
1.934416	674.306900	37.502000
1.941349	673.799889	37.602000
1.933466	674.384627	37.702000
1.929181	674.718666	37.802000
1.942248	673.649046	37.902000
1.937076	674.055589	38.002000
1.928383	674.727520	38.102000
1.938769	674.005762	38.202000
1.941711	673.795684	38.302000
1.931633	674.451380	38.402000
1.932077	674.457945	38.502000
1.943763	673.591038	38.602000
1.938441	674.012166	38.702000
1.928868	674.740717	38.802000
1.938534	673.886024	38.902000
1.939543	673.859894	39.002000
1.928886	674.724048	39.103000
1.936675	674.201827	39.202000
1.943550	673.647959	39.302000
1.931167	674.421046	39.402000
1.929536	674.621727	39.502000
1.942418	673.709339	39.602000
1.937015	674.139460	39.702000
1.929615	674.659354	39.802000
1.939090	673.839901	39.902000
1.938521	673.955908	40.006000
1.929475	674.672732	40.102000
1.936373	674.199781	40.202000
1.942627	673.714236	40.302000
1.933675	674.235042	40.402000
1.929981	674.608981	40.502000
1.938804	674.007469	40.602000
1.937911	674.064506	40.702000
1.930604	674.581620	40.802000
1.936613	674.041281	40.902000
1.939445	673.924332	41.002000
1.928184	674.760351	41.102000
1.933275	674.395096	41.202000
1.942854	673.638380	41.302000
1.933713	674.237501	41.402000
1.932034	674.474386	41.502000
1.941782	673.777996	41.602000
1.939813	673.900807	41.702000
1.930206	674.584131	41.802000
1.935860	674.102944	41.902000
1.940812	673.837624	42.002000
1.933794	674.371709	42.102000
1.931751	674.505668	42.202000
1.941898	673.767950	42.302000
1.936517	674.038035	42.402000
1.928929	674.672420	42.502000
1.938706	674.005630	42.602000
1.941440	673.781216	42.702000
1.930369	674.612087	42.802000
1.932318	674.363136	42.902000
1.940587	673.786077	43.002000
1.935171	674.200129	43.102000
1.930605	674.606778	43.202000
1.938995	674.012202	43.302000
1.937393	673.995598	43.402000
1.926824	674.807536	43.502000
1.937610	674.040972	43.602000
1.942991	673.685865	43.702000
1.930600	674.597462	43.802000
1.931657	674.427224	43.902000
1.941626	673.734468	44.002000
1.933715	674.357222	44.102000
1.929198	674.705444	44.202000
1.940308	673.842475	44.302000
1.939739	673.784090	44.402000
1.927385	674.799540	44.502000
1.937699	674.105094	44.602000
1.944547	673.594561	44.702000
1.931426	674.498707	44.802000
1.931132	674.420036	44.902000
1.941690	673.753603	45.008000
1.935279	674.267414	45.102000
1.929398	674.730960	45.202000
1.939184	673.944706	45.302000
1.940839	673.686870	45.402000
1.927869	674.732869	45.502000
1.934367	674.334786	45.602000
1.943079	673.714236	45.702000
1.933788	674.325683	45.802000
1.930522	674.505891	45.902000
1.942093	673.738095	46.002000
1.938244	674.022206	46.102000
1.929183	674.699026	46.202000
1.938203	674.014727	46.302000
1.941518	673.702763	46.402000
1.932228	674.472744	46.502000
1.933703	674.374908	46.602000
1.943372	673.646467	46.702000
1.934009	674.317577	46.802000
1.928130	674.698543	46.902000
1.940122	673.887509	47.002000
1.938837	673.989368	47.102000
1.929895	674.641055	47.202000
1.936123	674.167196	47.302000
1.941635	673.684562	47.402000
1.930054	674.610520	47.502000
1.932355	674.453942	47.602000
1.943103	673.669146	47.702000
1.937390	674.079936	47.802000
1.930152	674.522887	47.902000
1.939981	673.838554	48.002000
1.939387	673.911828	48.102000
1.929905	674.686125	48.202000
1.935504	674.250431	48.305000
1.942858	673.597980	48.402000
1.931824	674.431080	48.502000
1.929640	674.639340	48.602000
1.939804	673.939354	48.702000
1.936733	674.146092	48.802000
1.927934	674.694130	48.902000
1.941075	673.779525	49.002000
1.941120	673.801738	49.102000
1.931091	674.590150	49.202000
1.932980	674.406905	49.302000
1.942127	673.621598	49.402000
1.932586	674.414382	49.502000
1.931072	674.576591	49.602000
1.942262	673.768439	49.702000
1.939467	673.869413	49.802000
1.927879	674.657889	49.902000
1.937785	674.031338	50.002000
1.942033	673.775084	50.102000
1.932479	674.477296	50.203000
1.934155	674.283806	50.304000
1.943489	673.504743	50.405000
1.934030	674.325225	50.505000
1.930372	674.628885	50.602000
1.940872	673.867152	50.705000
1.940763	673.787665	50.802000
1.929692	674.536306	50.902000
1.936419	674.141962	51.002000
1.942400	673.718236	51.102000
1.932952	674.390287	51.202000
1.933489	674.340528	51.302000
1.941804	673.682460	51.402000
1.937190	674.091458	51.502000
1.929290	674.693263	51.602000
1.938838	673.949475	51.702000
1.939747	673.846873	51.802000
1.929863	674.572003	51.902000
1.933993	674.335285	52.002000
1.943669	673.614330	52.102000
1.931765	674.497700	52.202000
1.931518	674.488688	52.302000
1.942279	673.626011	52.402000
1.939485	673.892906	52.502000
1.928964	674.723035	52.602000
1.937543	674.089338	52.702000
1.940068	673.862988	52.802000
1.929878	674.544938	52.902000
1.933180	674.352399	53.002000
1.943746	673.590818	53.102000
1.936642	674.167685	53.202000
1.929941	674.661917	53.302000
1.939810	673.812464	53.402000
1.939066	673.893914	53.502000
1.929603	674.648873	53.602000
1.938729	674.035066	53.702000
1.943156	673.658673	53.802000
1.933565	674.287470	53.902000
1.933835	674.370488	54.002000
1.944463	673.712645	54.102000
1.936633	674.158550	54.202000
1.930024	674.659590	54.302000
1.941227	673.787067	54.402000
1.939739	673.853615	54.502000
1.930624	674.604448	54.602000
1.937281	674.128676	54.702000
1.942893	673.703564	54.802000
1.933173	674.375141	54.902000
1.932046	674.450393	55.002000
1.942414	673.790739	55.102000
1.937530	674.118886	55.202000
1.931311	674.541517	55.302000
1.940119	673.847413	55.403000
1.941139	673.739959	55.502000
1.930220	674.672550	55.602000
1.933408	674.431217	55.702000
1.942557	673.729212	55.802000
1.933512	674.362210	55.902000
1.932247	674.407300	56.002000
