probe voltage (V), probe current (A), resistance (9.9e37 if not enabled) , timestamp , status word ,
-4.600000E+01,-1.076657E-07,+9.910000E+37,+3.489894E+03,+2.150800E+04,
-4.590000E+01,-8.039020E-08,+9.910000E+37,+3.490951E+03,+2.150800E+04,
-4.580000E+01,-8.392585E-08,+9.910000E+37,+3.492010E+03,+2.150800E+04,
-4.570000E+01,-7.432895E-08,+9.910000E+37,+3.493067E+03,+2.150800E+04,
-4.560000E+01,-7.079324E-08,+9.910000E+37,+3.494124E+03,+2.150800E+04,
-4.550000E+01,-6.826772E-08,+9.910000E+37,+3.495182E+03,+2.150800E+04,
-4.540000E+01,-6.422690E-08,+9.910000E+37,+3.496239E+03,+2.150800E+04,
-4.530000E+01,-6.119634E-08,+9.910000E+37,+3.497298E+03,+2.150800E+04,
-4.520000E+01,-6.372177E-08,+9.910000E+37,+3.498354E+03,+2.150800E+04,
-4.510000E+01,-5.715549E-08,+9.910000E+37,+3.499413E+03,+2.150800E+04,
-4.500000E+01,-5.109427E-08,+9.910000E+37,+3.500472E+03,+2.150800E+04,
-4.490000E+01,-5.058915E-08,+9.910000E+37,+3.501532E+03,+2.150800E+04,
-4.480000E+01,-4.503302E-08,+9.910000E+37,+3.502616E+03,+2.150800E+04,
-4.470000E+01,-4.604320E-08,+9.910000E+37,+3.503674E+03,+2.150800E+04,
-4.460000E+01,-4.200239E-08,+9.910000E+37,+3.504729E+03,+2.150800E+04,
-4.450000E+01,-4.048711E-08,+9.910000E+37,+3.505809E+03,+2.150800E+04,
-4.440000E+01,-3.038504E-08,+9.910000E+37,+3.506870E+03,+2.150800E+04,
-4.430000E+01,-2.987994E-08,+9.910000E+37,+3.507931E+03,+2.150800E+04,
-4.420000E+01,-2.684935E-08,+9.910000E+37,+3.508993E+03,+2.150800E+04,
-4.410000E+01,-2.583911E-08,+9.910000E+37,+3.510052E+03,+2.150800E+04,
-4.400000E+01,-2.230340E-08,+9.910000E+37,+3.511110E+03,+2.150800E+04,
-4.390000E+01,-1.876769E-08,+9.910000E+37,+3.512169E+03,+2.150800E+04,
-4.380000E+01,-1.826259E-08,+9.910000E+37,+3.513229E+03,+2.150800E+04,
-4.370000E+01,-1.523197E-08,+9.910000E+37,+3.514292E+03,+2.150800E+04,
-4.360000E+01,-1.068604E-08,+9.910000E+37,+3.515351E+03,+2.150800E+04,
-4.350000E+01,-8.160526E-09,+9.910000E+37,+3.516411E+03,+2.150800E+04,
-4.340000E+01,-7.888334E-11,+9.910000E+37,+3.517470E+03,+2.150800E+04,
-4.330000E+01,+4.262200E-10,+9.910000E+37,+3.518531E+03,+2.150800E+04,
-4.320000E+01,+4.262203E-10,+9.910000E+37,+3.519591E+03,+2.150800E+04,
-4.310000E+01,+3.456579E-09,+9.910000E+37,+3.520662E+03,+2.150800E+04,
-4.300000E+01,-1.594189E-09,+9.910000E+37,+3.521740E+03,+2.150800E+04,
-4.290000E+01,+9.012147E-09,+9.910000E+37,+3.522800E+03,+2.150800E+04,
-4.280000E+01,+1.305256E-08,+9.910000E+37,+3.523858E+03,+2.150800E+04,
-4.270000E+01,+9.517195E-09,+9.910000E+37,+3.524937E+03,+2.150800E+04,
-4.260000E+01,+1.002225E-08,+9.910000E+37,+3.526015E+03,+2.150800E+04,
-4.250000E+01,+1.103235E-08,+9.910000E+37,+3.527096E+03,+2.150800E+04,
-4.240000E+01,+2.214350E-08,+9.910000E+37,+3.528154E+03,+2.150800E+04,
-4.230000E+01,+1.860814E-08,+9.910000E+37,+3.529216E+03,+2.150800E+04,
-4.220000E+01,+2.062832E-08,+9.910000E+37,+3.530274E+03,+2.150800E+04,
-4.210000E+01,+2.971926E-08,+9.910000E+37,+3.531334E+03,+2.150800E+04,
-4.200000E+01,+2.567884E-08,+9.910000E+37,+3.532393E+03,+2.150800E+04,
-4.190000E+01,+2.668895E-08,+9.910000E+37,+3.533452E+03,+2.150800E+04,
-4.180000E+01,+3.072937E-08,+9.910000E+37,+3.534511E+03,+2.150800E+04,
-4.170000E+01,+2.517379E-08,+9.910000E+37,+3.535569E+03,+2.150800E+04,
-4.160000E+01,+3.375967E-08,+9.910000E+37,+3.536628E+03,+2.150800E+04,
-4.150000E+01,+3.577987E-08,+9.910000E+37,+3.537687E+03,+2.150800E+04,
-4.140000E+01,+3.729503E-08,+9.910000E+37,+3.538745E+03,+2.150800E+04,
-4.130000E+01,+3.830511E-08,+9.910000E+37,+3.539829E+03,+2.150800E+04,
-4.120000E+01,+4.032532E-08,+9.910000E+37,+3.540888E+03,+2.150800E+04,
-4.110000E+01,+4.436576E-08,+9.910000E+37,+3.541948E+03,+2.150800E+04,
-4.100000E+01,+4.790111E-08,+9.910000E+37,+3.543027E+03,+2.150800E+04

current through plasma (-mA) <tab> voltage across plasma (-V) <tab> time (sec)
3.425585	436.746948	0.001000
3.436083	436.021564	0.101000
3.426815	436.734899	0.201000
3.421510	437.137565	0.301000
3.431369	436.364399	0.401000
3.434099	436.118659	0.501000
3.424144	436.850631	0.601000
3.424262	436.851951	0.701000
3.433963	436.129576	0.801000
3.430531	436.345745	0.901000
3.421107	437.038838	1.001000
3.427574	436.589024	1.101000
3.435052	436.029095	1.201000
3.426332	436.638378	1.301000
3.421233	437.004800	1.401000
3.431030	436.259691	1.501000
3.434445	436.017178	1.601000
3.423252	436.872660	1.701000
3.421730	436.998136	1.801000
3.433267	436.118146	1.901000
3.432668	436.075331	2.001000
3.421532	436.933824	2.101000
3.425125	436.696987	2.201000
3.433806	436.029730	2.301000
3.428375	436.375879	2.401000
3.420912	436.950421	2.501000
3.428925	436.384077	2.601000
3.434017	436.007120	2.701000
3.423918	436.717659	2.801000
3.421646	436.855647	2.901000
3.432348	436.050740	3.001000
3.431400	436.099113	3.103000
3.420283	436.951965	3.201000
3.423789	436.710838	3.301000
3.434597	435.871896	3.401000
3.428558	436.277758	3.501000
3.418863	437.023181	3.601000
3.426554	436.454148	3.701000
3.434180	435.847062	3.801000
3.425266	436.494559	3.901000
3.419563	436.921754	4.001000
3.429307	436.216541	4.101000
3.431499	436.029168	4.201000
3.421566	436.726798	4.301000
3.421905	436.691306	4.401000
3.432038	435.917506	4.501000
3.428345	436.198884	4.601000
3.418916	436.914525	4.701000
3.425003	436.481668	4.801000
3.432703	435.863669	4.901000
3.424094	436.452377	5.001000
3.418534	436.874209	5.101000
3.427978	436.183901	5.201000
3.431593	435.903846	5.301000
3.420677	436.689886	5.401000
3.419357	436.779592	5.501000
3.430258	435.971868	5.601000
3.429790	435.989853	5.701000
3.418770	436.794046	5.801000
3.421714	436.559928	5.901000
3.430814	435.827699	6.001000
3.425116	436.239133	6.101000
3.417382	436.832208	6.201000
3.425066	436.313866	6.301000
3.430328	435.854864	6.401000
3.421456	436.466304	6.501000
3.417890	436.722442	6.601000
3.427674	436.013655	6.701000
3.428109	435.968601	6.801000
3.417787	436.710536	6.901000
3.419722	436.541694	7.001000
3.430099	435.768981	7.101000
3.426344	436.038673	7.201000
3.414927	436.902288	7.301000
3.421157	436.378535	7.401000
3.430196	435.680035	7.501000
3.423170	436.174321	7.601000
3.415147	436.798905	7.701000
3.423059	436.237343	7.801000
3.428596	435.767500	7.901000
3.419602	436.385470	8.001000
3.415796	436.646459	8.101000
3.425528	435.921777	8.201000
3.425852	435.883723	8.301000
3.415753	436.595668	8.401000
3.417023	436.468700	8.501000
3.426058	435.753647	8.601000
3.422113	435.993994	8.701000
3.412715	436.656221	8.801000
3.418183	436.200135	8.901000
3.425630	435.567499	9.001000
3.417696	436.106630	9.101000
3.409949	436.677662	9.201000
3.417788	436.047281	9.302000
3.423910	435.513611	9.401000
3.413741	436.179280	9.501000
3.408032	436.507200	9.601000
3.417182	435.757930	9.701000
3.419089	435.479566	9.801000
3.406613	436.214869	9.901000
3.402526	436.181124	10.001000
3.411372	435.398578	10.101000
3.410570	435.474521	10.201000
3.401577	436.274593	10.301000
3.406064	436.038370	10.401000
3.415929	435.387015	10.501000
3.411638	435.756408	10.602000
3.404049	436.403795	10.701000
3.412618	435.897421	10.801000
3.418962	435.481808	10.901000
3.409931	436.150115	11.001000
3.406092	436.458767	11.101000
3.417380	435.648904	11.201000
3.420192	435.497804	11.301000
3.409443	436.348461	11.401000
3.408828	436.402135	11.501000
3.420456	435.568854	11.601000
3.419212	435.681773	11.701000
3.408410	436.542693	11.801000
3.412756	436.232322	11.901000
3.423158	435.477686	12.001000
3.417414	435.912346	12.101000
3.409194	436.532713	12.201000
3.416598	436.070083	12.301000
3.422967	435.617985	12.401000
3.415078	436.197425	12.501000
3.411278	436.478156	12.601000
3.421217	435.759979	12.701000
3.422350	435.702029	12.801000
3.412076	436.506161	12.901000
3.413253	436.425358	13.001000
3.424553	435.594057	13.101000
3.421684	435.792530	13.201000
3.411086	436.633875	13.301000
3.416567	436.254291	13.401000
3.426154	435.533252	13.501000
3.418903	436.058106	13.601000
3.411113	436.668264	13.701000
3.420355	436.025219	13.801000
3.426327	435.603054	13.901000
3.416700	436.314735	14.001000
3.412868	436.607742	14.101000
3.423103	435.819329	14.201000
3.424569	435.709938	14.301000
3.414697	436.472024	14.401000
3.415847	436.418834	14.501000
3.425447	435.683401	14.601000
3.421427	435.976450	14.703000
3.412636	436.651029	14.801000
3.418565	436.220678	14.901000
3.427041	435.582597	15.001000
3.419013	436.161264	15.101000
3.412506	436.657132	15.201000
3.422494	435.928692	15.301000
3.426733	435.638712	15.401000
3.416130	436.445924	15.501000
3.413756	436.610003	15.601000
3.425272	435.732773	15.701000
3.425616	435.710052	15.801000
3.414427	436.576495	15.901000
3.416368	436.485478	16.001000
3.426674	435.677468	16.101000
3.423029	435.924148	16.201000
3.413994	436.630009	16.301000
3.420229	436.223669	16.401000
3.427316	435.659017	16.501000
3.418965	436.237760	16.601000
3.414114	436.609395	16.701000
3.424232	435.906131	16.801000
3.426146	435.787056	16.901000
3.415660	436.532112	17.001000
3.416045	436.508303	17.101000
3.426977	435.667019	17.201000
3.424170	435.880295	17.301000
3.413215	436.726736	17.401000
3.418693	436.321105	17.501000
3.428533	435.560363	17.601000
3.421696	436.093492	17.701000
3.413453	436.751886	17.801000
3.421846	436.163890	17.901000
3.428245	435.652773	18.001000
3.419313	436.306879	18.101000
3.415997	436.573350	18.201000
3.425666	435.897638	18.301000
3.426609	435.833813	18.401000
3.416378	436.606870	18.501000
3.417650	436.495350	18.601000
3.427982	435.697230	18.701000
3.424395	435.950334	18.801000
3.414696	436.694323	18.901000
3.420593	436.260022	19.001000
3.428994	435.628894	19.101000
3.421155	436.176367	19.201000
3.414213	436.728874	19.301000
3.423176	436.063884	19.401000
3.429648	435.583928	19.501000
3.419290	436.334066	19.601000
3.414180	436.714455	19.701000
3.425304	435.904211	19.801000
3.428195	435.684786	19.901000
3.417741	436.500311	20.001000
3.416438	436.608598	20.101000
3.427322	435.723595	20.201000
3.425751	435.831112	20.301000
3.415018	436.660773	20.406000
3.419303	436.375728	20.501000
3.428056	435.698384	20.601000
3.422580	436.060783	20.701000
3.415129	436.627295	20.801000
3.422321	436.117316	20.901000
3.428329	435.671714	21.001000
3.419095	436.349491	21.101000
3.415044	436.628249	21.201000
3.425663	435.843961	21.301000
3.428558	435.657935	21.401000
3.416954	436.549998	21.501000
3.415731	436.650402	21.601000
3.427463	435.740757	21.701000
3.427002	435.740913	21.801000
3.415576	436.600508	21.901000
3.418179	436.441105	22.001000
3.428460	435.679170	22.101000
3.424081	435.969726	22.201000
3.414566	436.681446	22.301000
3.421323	436.210106	22.401000
3.429004	435.641174	22.501000
3.421228	436.183716	22.601000
3.415524	436.574486	22.701000
3.423979	435.949552	22.801000
3.427956	435.652873	22.901000
3.417605	436.454686	23.001000
3.416797	436.536322	23.101000
3.427562	435.711605	23.201000
3.426174	435.780307	23.301000
3.415270	436.571375	23.401000
3.418167	436.391281	23.501000
3.428985	435.589440	23.601000
3.424059	435.946162	23.701000
3.413891	436.711579	23.801000
3.421101	436.212526	23.902000
3.429622	435.571072	24.001000
3.421395	436.182324	24.101000
3.414184	436.703802	24.201000
3.424070	435.940225	24.301000
3.428917	435.566593	24.401000
3.418657	436.381562	24.501000
3.415859	436.609326	24.601000
3.426166	435.822429	24.701000
3.425649	435.814817	24.806000
3.416353	436.489394	24.901000
3.419147	436.328459	25.001000
3.428852	435.621794	25.101000
3.423447	435.991603	25.201000
3.413886	436.691245	25.301000
3.421813	436.113904	25.401000
3.429452	435.563424	25.501000
3.420568	436.208433	25.601000
3.414454	436.640148	25.701000
3.424684	435.858943	25.801000
3.428542	435.541721	25.901000
3.417871	436.351156	26.001000
3.414865	436.620718	26.101000
3.426380	435.749397	26.201000
3.426680	435.651913	26.301000
3.415701	436.465759	26.403000
3.417364	436.365129	26.501000
3.427006	435.641781	26.601000
3.422934	435.939637	26.701000
3.414701	436.518716	26.801000
3.421024	436.065268	26.901000
3.428139	435.544482	27.001000
3.419316	436.207355	27.101000
3.414130	436.551937	27.201000
3.423611	435.826996	27.301000
3.427264	435.523228	27.401000
3.416429	436.349133	27.501000
3.414901	436.504542	27.601000
3.426040	435.659998	27.701000
3.425216	435.680899	27.801000
3.413713	436.510870	27.901000
3.417040	436.272952	28.001000
3.427835	435.472427	28.101000
3.423349	435.787573	28.201000
3.412874	436.589649	28.301000
3.419266	436.106790	28.401000
3.427445	435.505678	28.501000
3.419276	436.074811	28.601000
3.414071	436.473591	28.701000
3.423075	435.762259	28.801000
3.426120	435.507230	28.901000
3.415911	436.286142	29.001000
3.414681	436.437889	29.101000
3.425390	435.621176	29.201000
3.423939	435.702410	29.301000
3.414167	436.395437	29.401000
3.417350	436.155366	29.501000
3.427124	435.439556	29.601000
3.420297	435.930423	29.701000
3.411155	436.595513	29.801000
3.419627	435.945307	29.901000
3.427068	435.386439	30.001000
3.417752	436.088721	30.101000
3.411686	436.535866	30.201000
3.421779	435.745605	30.301000
3.425462	435.402958	30.401000
3.414850	436.189672	30.501000
3.413717	436.318894	30.601000
3.423563	435.576861	30.701000
3.421847	435.665724	30.801000
3.411707	436.356241	30.901000
3.415334	436.094723	31.001000
3.424198	435.437087	31.101000
3.418794	435.811504	31.201000
3.410093	436.453525	31.301000
3.418553	435.785070	31.401000
3.424452	435.342959	31.501000
3.414202	436.088863	31.601000
3.409339	436.441858	31.701000
3.420688	435.539835	31.801000
3.422989	435.318981	31.901000
3.411173	436.188906	32.001000
3.410221	436.274940	32.101000
3.421502	435.433703	32.201000
3.419276	435.519346	32.301000
3.408821	436.266029	32.401000
3.412197	435.981899	32.501000
3.420930	435.268690	32.601000
3.414657	435.705219	32.701000
3.406363	436.276822	32.801000
3.413809	435.660536	32.901000
3.418967	435.230251	33.001000
3.409796	435.837720	33.101000
3.404830	436.128742	33.201000
3.413682	435.336646	33.301000
3.412656	435.186696	33.401000
3.399086	435.866877	33.501000
3.392495	435.543586	33.601000
3.396798	434.558463	33.701000
3.392086	434.744100	33.801000
3.382397	435.569839	33.901000
3.389194	435.233268	34.001000
3.400666	434.604118	34.101000
3.395780	435.122705	34.201000
3.389390	435.778866	34.301000
3.398764	435.188405	34.401000
3.405858	434.763338	34.501000
3.397952	435.457023	34.601000
3.394400	435.867139	34.701000
3.404804	435.188735	34.801000
3.408179	434.953958	34.901000
3.399071	435.657740	35.001000
3.399627	435.716558	35.101000
3.409595	435.077387	35.201000
3.406141	435.341484	35.301000
3.397715	435.969873	35.401000
3.403798	435.550585	35.501000
3.412650	434.885827	35.601000
3.404934	435.491920	35.701000
3.397894	436.062869	35.801000
3.407063	435.380642	35.901000
3.413003	434.950880	36.001000
3.402846	435.727262	36.101000
3.399295	436.020598	36.201000
3.409936	435.225426	36.301000
3.411701	435.040681	36.401000
3.401119	435.823627	36.501000
3.401426	435.821923	36.601000
3.412153	435.055149	36.701000
3.409470	435.269181	36.801000
3.400425	435.943323	36.901000
3.405544	435.569967	37.001000
3.413106	435.000979	37.101000
3.405295	435.587946	37.201000
3.399987	435.978055	37.301000
3.409486	435.276956	37.401000
3.412822	435.008635	37.501000
3.401974	435.825528	37.601000
3.400754	435.910825	37.701000
3.411705	435.130066	37.801000
3.410994	435.143575	37.901000
3.400257	435.923354	38.001000
3.403431	435.692429	38.101000
3.413777	434.972497	38.201000
3.408406	435.375969	38.301000
3.399031	436.057107	38.401000
3.406356	435.528430	38.501000
3.414125	434.915451	38.601000
3.405526	435.557650	38.701000
3.400960	435.968672	38.801000
3.409855	435.347178	38.901000
3.412811	435.126204	39.001000
3.403676	435.820992	39.101000
3.404042	435.849314	39.201000
3.414262	435.153210	39.301000
3.411808	435.338395	39.401000
3.402174	436.045766	39.501000
3.407855	435.698829	39.601000
3.417445	435.042655	39.701000
3.410358	435.650392	39.801000
3.402947	436.234164	39.901000
3.412765	435.514463	40.001000
3.418855	435.051165	40.101000
3.408672	435.847184	40.201000
3.404813	436.176382	40.301000
3.415905	435.351592	40.401000
3.417632	435.198252	40.501000
3.407459	435.986650	40.601000
3.408609	435.967819	40.701000
3.418332	435.268141	40.801000
3.415118	435.470518	40.901000
3.406104	436.147239	41.001000
3.412062	435.711235	41.101000
3.419918	435.175681	41.201000
3.412169	435.800127	41.301000
3.406167	436.266733	41.401000
3.415727	435.531793	41.501000
3.420430	435.163442	41.601000
3.410096	435.926408	41.701000
3.407655	436.136470	41.801000
3.419170	435.284680	41.901000
3.419207	435.262957	42.001000
3.408036	436.124176	42.101000
3.409547	436.064128	42.201000
3.420939	435.232026	42.301000
3.417430	435.493910	42.401000
3.408318	436.165129	42.501000
3.413469	435.786858	42.601000
3.421474	435.208047	42.701000
3.413960	435.813834	42.801000
3.408209	436.271588	42.901000
3.416962	435.610093	43.001000
3.421122	435.279316	43.101000
3.411615	435.974654	43.201000
3.410083	436.145298	43.301000
3.420592	435.390826	43.401000
3.419601	435.448183	43.501000
3.409774	436.171807	43.601000
3.413130	435.947673	43.701000
3.422795	435.251601	43.801000
3.417240	435.672456	43.901000
3.408280	436.335056	44.001000
3.415767	435.760723	44.101000
3.423639	435.164803	44.201000
3.415217	435.835646	44.301000
3.409475	436.313477	44.401000
3.419025	435.570527	44.501000
3.421670	435.350210	44.611000
3.412463	436.025279	44.701000
3.411698	436.122556	44.801000
3.421431	435.397615	44.901000
3.420237	435.482285	45.001000
3.409923	436.228629	45.101000
3.414537	435.927774	45.201000
3.423054	435.339217	45.301000
3.416979	435.782613	45.401000
3.409828	436.295223	45.501000
3.418513	435.633870	45.601000
3.424161	435.222601	45.701000
3.414102	435.968720	45.803000
3.409627	436.380261	45.901000
3.420172	435.559668	46.001000
3.423422	435.301948	46.101000
3.412483	436.100802	46.201000
3.411617	436.186446	46.301000
3.422534	435.384452	46.401000
3.420285	435.513415	46.501000
3.410642	436.249173	46.601000
3.415277	435.929539	46.701000
3.423764	435.308170	46.801000
3.417324	435.793271	46.901000
3.410793	436.275101	47.001000
3.418646	435.673743	47.101000
3.423520	435.296939	47.201000
3.414006	436.020873	47.301000
3.411972	436.216368	47.401000
3.422361	435.460582	47.501000
3.422217	435.434836	47.601000
3.411024	436.252006	47.701000
3.413780	436.088790	47.801000
3.424758	435.277618	47.901000
3.420571	435.590388	48.001000
3.410932	436.313751	48.101000
3.417132	435.850649	48.202000
3.424711	435.300925	48.301000
3.416973	435.874742	48.401000
3.411201	436.321187	48.501000
3.420235	435.643737	48.601000
3.424138	435.323630	48.702000
3.414199	436.082719	48.801000
3.412913	436.234845	48.901000
3.423098	435.490122	49.001000
3.421687	435.563257	49.101000
3.412137	436.239110	49.201000
3.417016	435.898082	49.301000
3.425386	435.307010	49.401000
3.418260	435.843989	49.501000
3.410331	436.427913	49.601000
3.419396	435.727449	49.701000
3.425371	435.297120	49.801000
3.416118	435.999151	49.901000
3.411523	436.362462	50.001000
3.422516	435.500065	50.101000
3.423604	435.390744	50.201000
3.412843	436.195444	50.301000
3.413266	436.231635	50.401000
3.423745	435.453136	50.501000
3.421901	435.552443	50.601000
3.412007	436.267631	50.701000
3.416583	435.928621	50.801000
3.424799	435.338396	50.901000
3.418294	435.806200	51.001000
3.412508	436.245660	51.101000
3.420895	435.630293	51.201000
3.424732	435.353486	51.301000
3.414459	436.111235	51.401000
3.412540	436.277721	51.501000
3.423381	435.429828	51.601000
3.423394	435.385487	51.701000
3.412201	436.225754	51.801000
3.414790	436.091463	51.901000
3.425071	435.332320	52.001000
3.420006	435.664637	52.101000
3.410682	436.352083	52.201000
3.417727	435.809932	52.301000
3.425003	435.279993	52.401000
3.417169	435.849856	52.501000
3.411443	436.269256	52.601000
3.420326	435.605800	52.701000
3.423145	435.388167	52.801000
3.413868	436.059918	52.901000
3.413617	436.109267	53.001000
3.423159	435.363663	53.101000
3.420804	435.504301	53.201000
3.411129	436.222234	53.301000
3.415439	435.941281	53.401000
3.424858	435.285077	53.501000
3.418566	435.737671	53.601000
3.410890	436.296707	53.701000
3.419135	435.679268	53.801000
3.425453	435.228166	53.901000
3.415311	435.989718	54.001000
3.410554	436.353610	54.101000
3.421648	435.530729	54.201000
3.424149	435.328241	54.301000
3.413737	436.090290	54.401000
3.413222	436.150267	54.501000
3.423040	435.427765	54.601000
3.421128	435.510456	54.701000
3.412364	436.160490	54.801000
3.417240	435.831160	54.901000
3.424135	435.340120	55.001000
3.417415	435.836220	55.101000
3.411523	436.259065	55.201000
3.420850	435.546961	55.301000
3.424547	435.290223	55.401000
3.414374	436.058452	55.501000
3.412949	436.182666	55.601000
3.424136	435.348351	55.701000
3.422853	435.425501	55.801000
3.411833	436.268927	55.901000
3.414864	436.044366	56.001000
