probe voltage (V), probe current (A), resistance (9.9e37 if not enabled) , timestamp , status word ,
-4.000000E+01,-5.816532E-08,+9.910000E+37,+3.586178E+03,+2.150800E+04,
-3.990000E+01,-4.755824E-08,+9.910000E+37,+3.587238E+03,+2.150800E+04,
-3.980000E+01,-5.361937E-08,+9.910000E+37,+3.588302E+03,+2.150800E+04,
-3.970000E+01,-4.957860E-08,+9.910000E+37,+3.589381E+03,+2.150800E+04,
-3.960000E+01,-3.897152E-08,+9.910000E+37,+3.590438E+03,+2.150800E+04,
-3.950000E+01,-4.553781E-08,+9.910000E+37,+3.591499E+03,+2.150800E+04,
-3.940000E+01,-4.200215E-08,+9.910000E+37,+3.592559E+03,+2.150800E+04,
-3.930000E+01,-3.745623E-08,+9.910000E+37,+3.593617E+03,+2.150800E+04,
-3.920000E+01,-3.644606E-08,+9.910000E+37,+3.594676E+03,+2.150800E+04,
-3.910000E+01,-3.745622E-08,+9.910000E+37,+3.595734E+03,+2.150800E+04,
-3.900000E+01,-3.088994E-08,+9.910000E+37,+3.596791E+03,+2.150800E+04,
-3.890000E+01,-3.139502E-08,+9.910000E+37,+3.597850E+03,+2.150800E+04,
-3.880000E+01,-2.533385E-08,+9.910000E+37,+3.598909E+03,+2.150800E+04,
-3.870000E+01,-2.432364E-08,+9.910000E+37,+3.599971E+03,+2.150800E+04,
-3.860000E+01,-2.634402E-08,+9.910000E+37,+3.601029E+03,+2.150800E+04,
-3.850000E+01,-1.876755E-08,+9.910000E+37,+3.602088E+03,+2.150800E+04,
-3.840000E+01,-1.624205E-08,+9.910000E+37,+3.603146E+03,+2.150800E+04,
-3.830000E+01,-1.876754E-08,+9.910000E+37,+3.604205E+03,+2.150800E+04,
-3.820000E+01,-1.775734E-08,+9.910000E+37,+3.605263E+03,+2.150800E+04,
-3.810000E+01,-1.523184E-08,+9.910000E+37,+3.606324E+03,+2.150800E+04,
-3.800000E+01,-1.119106E-08,+9.910000E+37,+3.607382E+03,+2.150800E+04,
-3.790000E+01,-9.170665E-09,+9.910000E+37,+3.608441E+03,+2.150800E+04,
-3.780000E+01,-8.665562E-09,+9.910000E+37,+3.609500E+03,+2.150800E+04,
-3.770000E+01,-4.624768E-09,+9.910000E+37,+3.610560E+03,+2.150800E+04,
-3.760000E+01,-6.140064E-09,+9.910000E+37,+3.611621E+03,+2.150800E+04,
-3.750000E+01,-5.839759E-10,+9.910000E+37,+3.612681E+03,+2.150800E+04,
-3.740000E+01,-5.839748E-10,+9.910000E+37,+3.613739E+03,+2.150800E+04,
-3.730000E+01,+3.456563E-09,+9.910000E+37,+3.614800E+03,+2.150800E+04,
-3.720000E+01,-2.099269E-09,+9.910000E+37,+3.615860E+03,+2.150800E+04,
-3.710000E+01,+3.961612E-09,+9.910000E+37,+3.616920E+03,+2.150800E+04,
-3.700000E+01,+4.971705E-09,+9.910000E+37,+3.617979E+03,+2.150800E+04,
-3.690000E+01,+1.002219E-08,+9.910000E+37,+3.619038E+03,+2.150800E+04,
-3.680000E+01,+1.052724E-08,+9.910000E+37,+3.620096E+03,+2.150800E+04,
-3.670000E+01,+1.254744E-08,+9.910000E+37,+3.621155E+03,+2.150800E+04,
-3.660000E+01,+1.355753E-08,+9.910000E+37,+3.622214E+03,+2.150800E+04,
-3.650000E+01,+1.507267E-08,+9.910000E+37,+3.623273E+03,+2.150800E+04,
-3.640000E+01,+1.052723E-08,+9.910000E+37,+3.624332E+03,+2.150800E+04,
-3.630000E+01,+1.759792E-08,+9.910000E+37,+3.625393E+03,+2.150800E+04,
-3.620000E+01,+1.507266E-08,+9.910000E+37,+3.626451E+03,+2.150800E+04,
-3.610000E+01,+1.860800E-08,+9.910000E+37,+3.627513E+03,+2.150800E+04,
-3.600000E+01,+2.062820E-08,+9.910000E+37,+3.628593E+03,+2.150800E+04,
-3.590000E+01,+2.113324E-08,+9.910000E+37,+3.629651E+03,+2.150800E+04,
-3.580000E+01,+2.416352E-08,+9.910000E+37,+3.630711E+03,+2.150800E+04,
-3.570000E+01,+2.618373E-08,+9.910000E+37,+3.631770E+03,+2.150800E+04,
-3.560000E+01,+2.618373E-08,+9.910000E+37,+3.632830E+03,+2.150800E+04,
-3.550000E+01,+2.365847E-08,+9.910000E+37,+3.633891E+03,+2.150800E+04,
-3.540000E+01,+3.072915E-08,+9.910000E+37,+3.634949E+03,+2.150800E+04,
-3.530000E+01,+2.567865E-08,+9.910000E+37,+3.636008E+03,+2.150800E+04,
-3.520000E+01,+3.224430E-08,+9.910000E+37,+3.637068E+03,+2.150800E+04,
-3.510000E+01,+3.375946E-08,+9.910000E+37,+3.638126E+03,+2.150800E+04,
-3.500000E+01,+3.779983E-08,+9.910000E+37,+3.639185E+03,+2.150800E+04,
-3.490000E+01,+3.982003E-08,+9.910000E+37,+3.640244E+03,+2.150800E+04,
-3.480000E+01,+4.032510E-08,+9.910000E+37,+3.641303E+03,+2.150800E+04,
-3.470000E+01,+3.830484E-08,+9.910000E+37,+3.642362E+03,+2.150800E+04,
-3.460000E+01,+4.638564E-08,+9.910000E+37,+3.643421E+03,+2.150800E+04,
-3.450000E+01,+4.133515E-08,+9.910000E+37,+3.644479E+03,+2.150800E+04,
-3.440000E+01,+4.386043E-08,+9.910000E+37,+3.645540E+03,+2.150800E+04,
-3.430000E+01,+4.487049E-08,+9.910000E+37,+3.646601E+03,+2.150800E+04,
-3.420000E+01,+5.345630E-08,+9.91000


current through plasma (-mA) <tab> voltage across plasma (-V) <tab> time (sec)
3.485434	436.215993	0.001000
3.486079	436.094539	0.101000
3.489646	435.848195	0.201000
3.491316	435.712880	0.301000
3.488708	435.814587	0.401000
3.484169	436.214600	0.501000
3.482575	436.263693	0.601000
3.484729	436.149125	0.701000
3.488105	435.716998	0.801000
3.489631	435.621924	0.901000
3.486517	435.752261	1.001000
3.482280	436.008729	1.101000
3.480357	436.082540	1.201000
3.482578	435.971074	1.301000
3.485969	435.486753	1.401000
3.486301	435.396097	1.501000
3.482960	435.666602	1.601000
3.478865	435.818097	1.701000
3.477373	435.979969	1.801000
3.478633	435.773277	1.901000
3.481009	435.332545	2.001000
3.481377	435.233892	2.101000
3.477162	435.487085	2.201000
3.471736	435.718775	2.301000
3.469868	435.693241	2.401000
3.472794	435.242170	2.501000
3.474807	435.015723	2.601000
3.472072	434.868307	2.701000
3.465195	434.933948	2.801000
3.457805	435.133014	2.901000
3.454185	434.930609	3.001000
3.454793	434.641735	3.101000
3.457362	434.123947	3.201000
3.456893	434.180467	3.301000
3.455008	434.543449	3.401000
3.454802	434.884893	3.501000
3.457367	435.021062	3.601000
3.463188	434.917349	3.701000
3.467875	434.793516	3.801000
3.469749	434.902704	3.901000
3.468242	435.101610	4.001000
3.466042	435.488844	4.101000
3.467279	435.535701	4.201000
3.472748	435.197007	4.301000
3.476046	434.988614	4.401000
3.475212	435.136236	4.501000
3.471536	435.507535	4.601000
3.469732	435.645810	4.701000
3.470976	435.721847	4.801000
3.474298	435.330053	4.901000
3.477271	435.219006	5.001000
3.476834	435.135961	5.101000
3.473261	435.514736	5.201000
3.470628	435.760240	5.301000
3.472595	435.663549	5.401000
3.477118	435.422496	5.501000
3.480042	435.271666	5.601000
3.478537	435.276740	5.701000
3.475059	435.682159	5.801000
3.473303	435.790761	5.901000
3.474817	435.604819	6.001000
3.479320	435.446859	6.101000
3.481944	435.272866	6.201000
3.479483	435.470858	6.301000
3.476122	435.830469	6.401000
3.475542	435.863563	6.501000
3.478341	435.768315	6.601000
3.482042	435.550591	6.701000
3.483868	435.396541	6.801000
3.482547	435.505254	6.901000
3.478488	435.854895	7.001000
3.476352	436.093622	7.101000
3.479668	435.995521	7.201000
3.484192	435.478659	7.301000
3.485660	435.390686	7.401000
3.482052	435.590668	7.501000
3.478816	435.906031	7.601000
3.478165	436.117087	7.701000
3.481502	435.710900	7.801000
3.484692	435.663581	7.901000
3.485764	435.546384	8.001000
3.483004	435.787913	8.101000
3.478962	436.008792	8.201000
3.479158	436.129868	8.301000
3.482996	435.777021	8.401000
3.486533	435.437825	8.501000
3.485936	435.638663	8.601000
3.482841	435.876177	8.701000
3.479863	436.077997	8.801000
3.480405	436.045877	8.901000
3.484261	435.815958	9.001000
3.487773	435.555846	9.101000
3.487133	435.509210	9.201000
3.482130	435.869162	9.301000
3.479678	436.177344	9.401000
3.481670	436.054045	9.501000
3.485538	435.762314	9.601000
3.486749	435.567574	9.701000
3.485189	435.672140	9.801000
3.482252	435.916625	9.901000
3.479710	436.064712	10.001000
3.481006	436.023880	10.101000
3.485362	435.738639	10.201000
3.488004	435.441499	10.301000
3.485707	435.761129	10.401000
3.482219	435.992328	10.501000
3.480746	436.168172	10.601000
3.483227	435.963886	10.701000
3.487111	435.736565	10.801000
3.488808	435.543052	10.901000
3.486096	435.756388	11.001000
3.481649	436.112833	11.101000
3.480640	436.202132	11.201000
3.484511	435.889302	11.301000
3.488182	435.572591	11.401000
3.488209	435.604834	11.501000
3.484931	435.878325	11.601000
3.482509	436.194502	11.701000
3.482104	436.142088	11.801000
3.484434	436.020055	11.901000
3.488252	435.676510	12.001000
3.488971	435.619501	12.101000
3.485330	435.871361	12.201000
3.481611	436.181196	12.301000
3.482175	436.205664	12.401000
3.486588	435.853400	12.501000
3.488930	435.678548	12.601000
3.488117	435.823531	12.701000
3.484775	436.000567	12.801000
3.481751	436.356207	12.901000
3.482724	436.102953	13.001000
3.486596	435.928695	13.101000
3.489690	435.645981	13.201000
3.488380	435.766203	13.301000
3.484241	436.110907	13.401000
3.482536	436.241173	13.501000
3.483988	436.236654	13.601000
3.487231	435.903290	13.701000
3.489646	435.772093	13.801000
3.488994	435.693123	13.901000
3.484617	435.984323	14.001000
3.481616	436.430005	14.101000
3.483364	436.195835	14.201000
3.488489	435.761425	14.301000
3.490139	435.603415	14.401000
3.487077	435.981805	14.501000
3.483385	436.126718	14.601000
3.482460	436.220821	14.701000
3.484652	436.113193	14.801000
3.488299	435.695071	14.901000
3.489604	435.591774	15.001000
3.487427	435.782242	15.101000
3.483275	436.172173	15.201000
3.481696	436.248714	15.301000
3.484422	436.005141	15.401000
3.488095	435.666437	15.501000
3.488990	435.632006	15.601000
3.486148	435.835038	15.701000
3.482894	436.132941	15.801000
3.481443	436.216177	15.901000
3.484843	436.076442	16.001000
3.489065	435.677769	16.101000
3.489329	435.713002	16.201000
3.485130	436.063401	16.301000
3.482162	436.277315	16.401000
3.482629	436.073060	16.501000
3.485573	435.987156	16.601000
3.488174	435.717615	16.701000
3.488647	435.831284	16.801000
3.486163	435.896104	16.901000
3.482338	436.213311	17.001000
3.482027	436.375185	17.101000
3.486389	435.997076	17.201000
3.489989	435.664338	17.301000
3.488717	435.626071	17.401000
3.484892	436.069778	17.501000
3.482351	436.263755	17.601000
3.483667	436.219562	17.701000
3.487139	436.020957	17.801000
3.489963	435.570006	17.901000
3.489323	435.818218	18.001000
3.485144	436.084192	18.101000
3.482642	436.346446	18.201000
3.484845	436.101649	18.301000
3.488300	435.955962	18.401000
3.490022	435.743501	18.501000
3.488431	435.886548	18.601000
3.485532	436.132941	18.701000
3.483126	436.290740	18.801000
3.484729	436.194253	18.901000
3.489175	435.879229	19.001000
3.491573	435.733319	19.101000
3.488949	435.948999	19.201000
3.484128	436.277991	19.301000
3.482901	436.460850	19.401000
3.486570	436.228228	19.501000
3.489827	435.930695	19.601000
3.490475	435.683621	19.701000
3.488744	435.903873	19.801000
3.484865	436.298813	19.901000
3.483836	436.335552	20.001000
3.486945	436.045989	20.101000
3.490665	435.825043	20.201000
3.491475	435.804941	20.301000
3.488026	436.107487	20.401000
3.485144	436.162078	20.501000
3.485085	436.363273	20.601000
3.488075	436.037747	20.701000
3.492200	435.891302	20.801000
3.492580	435.809030	20.901000
3.489286	436.214377	21.001000
3.485055	436.542255	21.101000
3.486389	436.462257	21.201000
3.490650	436.126604	21.301000
3.493535	435.886312	21.401000
3.492433	436.013214	21.501000
3.489597	436.255322	21.601000
3.486932	436.363028	21.701000
3.487989	436.270435	21.801000
3.491078	436.227912	21.901000
3.494244	435.960420	22.001000
3.493683	435.949666	22.101000
3.489578	436.240078	22.201000
3.486949	436.485269	22.301000
3.489164	436.341037	22.401000
3.492729	436.106463	22.501000
3.494422	436.009448	22.601000
3.493172	435.968185	22.701000
3.489191	436.273546	22.801000
3.487019	436.504716	22.901000
3.488570	436.415707	23.001000
3.493213	435.948481	23.101000
3.494969	435.918195	23.201000
3.491725	436.081234	23.301000
3.488350	436.443093	23.401000
3.487637	436.529816	23.501000
3.490252	436.283234	23.601000
3.493148	436.048124	23.701000
3.494837	435.835977	23.801000
3.492684	436.019065	23.901000
3.488277	436.398076	24.001000
3.486976	436.575819	24.101000
3.490607	436.232153	24.201000
3.494867	435.847285	24.301000
3.493967	435.983229	24.401000
3.490667	436.322514	24.501000
3.487585	436.483491	24.601000
3.487715	436.356665	24.701000
3.491231	436.233616	24.801000
3.494580	435.922773	24.901000
3.494260	435.929001	25.001000
3.490289	436.251100	25.101000
3.487392	436.560764	25.201000
3.489014	436.467917	25.301000
3.492655	436.211962	25.401000
3.494606	435.980805	25.501000
3.493473	436.077602	25.601000
3.490507	436.331772	25.701000
3.487633	436.564509	25.801000
3.488931	436.395247	25.901000
3.492520	436.233913	26.001000
3.495786	436.027879	26.101000
3.493488	436.013413	26.201000
3.488987	436.447611	26.301000
3.487424	436.568214	26.401000
3.490204	436.223602	26.501000
3.493824	436.097604	26.601000
3.495040	435.939142	26.701000
3.492987	436.159947	26.801000
3.489566	436.437339	26.901000
3.487823	436.454573	27.001000
3.490238	436.351474	27.101000
3.494550	435.897635	27.201000
3.495629	435.973071	27.301000
3.492423	436.176767	27.401000
3.488408	436.581204	27.501000
3.487952	436.574512	27.601000
3.490498	436.401008	27.701000
3.494750	436.099189	27.801000
3.495662	436.043211	27.901000
3.491924	436.113680	28.001000
3.488375	436.514529	28.101000
3.488305	436.502826	28.201000
3.492115	436.297189	28.301000
3.495378	435.947068	28.401000
3.494196	436.052118	28.501000
3.490867	436.361991	28.601000
3.488810	436.489450	28.701000
3.488719	436.610705	28.801000
3.492112	436.257383	28.901000
3.495260	435.986512	29.001000
3.495089	436.027612	29.101000
3.490732	436.329696	29.201000
3.487796	436.623179	29.301000
3.488995	436.558952	29.401000
3.493248	436.104359	29.501000
3.495996	435.900168	29.601000
3.494447	436.043878	29.701000
3.490503	436.378455	29.801000
3.487995	436.579227	29.901000
3.489274	436.533093	30.001000
3.493623	436.112516	30.101000
3.496046	435.876383	30.201000
3.493875	436.080368	30.301000
3.490266	436.412299	30.401000
3.488658	436.593077	30.501000
3.490502	436.334440	30.601000
3.494104	436.137039	30.701000
3.496137	435.955813	30.801000
3.494328	436.111531	30.901000
3.489952	436.491606	31.001000
3.488193	436.595797	31.101000
3.491125	436.314439	31.201000
3.495810	436.006612	31.301000
3.496310	435.915876	31.401000
3.492664	436.351764	31.501000
3.489481	436.541954	31.601000
3.489348	436.569154	31.701000
3.491755	436.480231	31.801000
3.495526	436.107605	31.901000
3.496364	436.025390	32.001000
3.493676	436.196775	32.101000
3.489987	436.532565	32.201000
3.489846	436.590221	32.301000
3.493826	436.321402	32.401000
3.496766	436.103930	32.501000
3.496777	436.096271	32.601000
3.493682	436.361561	32.701000
3.490310	436.575819	32.801000
3.490671	436.632319	32.901000
3.494403	436.246226	33.001000
3.498068	436.037673	33.101000
3.496526	436.115383	33.201000
3.492272	436.497902	33.301000
3.490055	436.738625	33.401000
3.491658	436.559942	33.501000
3.495565	436.272213	33.601000
3.497298	436.177241	33.701000
3.496115	436.192475	33.801000
3.492945	436.453881	33.901000
3.490406	436.615117	34.001000
3.491363	436.566883	34.101000
3.495775	436.277205	34.201000
3.498037	436.001457	34.301000
3.495789	436.194454	34.401000
3.491450	436.547156	34.501000
3.490561	436.623430	34.601000
3.492823	436.507678	34.701000
3.496882	436.172901	34.801000
3.498782	436.022574	34.901000
3.495715	436.338506	35.001000
3.491292	436.612169	35.101000
3.490718	436.681065	35.201000
3.494360	436.412095	35.301000
3.498187	436.090964	35.401000
3.498096	436.134832	35.501000
3.495229	436.417411	35.601000
3.492316	436.614334	35.701000
3.492183	436.697586	35.801000
3.494246	436.558811	35.901000
3.498331	436.205590	36.001000
3.499207	436.044470	36.101000
3.495335	436.439566	36.201000
3.491284	436.733389	36.301000
3.492655	436.606927	36.401000
3.496616	436.345326	36.501000
3.499052	436.141460	36.601000
3.498236	436.323032	36.701000
3.494760	436.409615	36.801000
3.492030	436.770421	36.901000
3.492613	436.614186	37.001000
3.496455	436.319109	37.101000
3.499770	436.062215	37.201000
3.498360	436.163790	37.301000
3.494167	436.574242	37.401000
3.491691	436.765016	37.501000
3.493109	436.681951	37.601000
3.496421	436.432135	37.701000
3.499553	436.137126	37.801000
3.498177	436.199910	37.901000
3.494384	436.591838	38.001000
3.491410	436.777723	38.101000
3.493423	436.673434	38.201000
3.498029	436.281612	38.301000
3.499555	436.138200	38.401000
3.496944	436.304812	38.501000
3.493435	436.518270	38.601000
3.492496	436.652395	38.701000
3.493968	436.490018	38.801000
3.497503	436.235489	38.901000
3.499430	436.096334	39.001000
3.496889	436.354066	39.101000
3.493094	436.655425	39.201000
3.491458	436.802356	39.301000
3.494711	436.501021	39.401000
3.498543	436.123909	39.501000
3.499173	436.095678	39.601000
3.496499	436.363925	39.701000
3.492715	436.663217	39.801000
3.491640	436.791484	39.901000
3.495035	436.541335	40.001000
3.499039	436.268509	40.101000
3.499201	436.204379	40.201000
3.495514	436.427581	40.301000
3.492506	436.673068	40.401000
3.492798	436.636690	40.501000
3.495802	436.494757	40.601000
3.498635	436.269249	40.701000
3.498936	436.197687	40.801000
3.496069	436.499676	40.901000
3.492278	436.770643	41.001000
3.491830	436.802980	41.101000
3.496091	436.364048	41.201000
3.500050	436.044100	41.301000
3.499059	436.120899	41.401000
3.494654	436.629308	41.501000
3.492085	436.861533	41.601000
3.493079	436.698179	41.701000
3.496237	436.476676	41.801000
3.499690	436.268127	41.901000
3.499252	436.250448	42.001000
3.494985	436.474541	42.101000
3.492140	436.795964	42.201000
3.493579	436.677509	42.301000
3.497695	436.347557	42.401000
3.499241	436.279852	42.501000
3.498162	436.254729	42.601000
3.495054	436.488496	42.701000
3.492640	436.668169	42.801000
3.492923	436.767867	42.901000
3.497339	436.322216	43.001000
3.500542	436.058691	43.101000
3.497997	436.300210	43.201000
3.493423	436.634122	43.301000
3.491734	436.800282	43.401000
3.494354	436.651441	43.501000
3.498009	436.301840	43.601000
3.499409	436.213037	43.701000
3.498396	436.249099	43.801000
3.494325	436.587235	43.901000
3.492319	436.702398	44.001000
3.493977	436.707215	44.101000
3.497969	436.375249	44.201000
3.499619	436.131163	44.301000
3.497471	436.285613	44.401000
3.494143	436.602131	44.501000
3.491948	436.717369	44.601000
3.493843	436.635516	44.701000
3.497933	436.275092	44.801000
3.500042	436.160754	44.901000
3.496998	436.418004	45.001000
3.492894	436.673656	45.101000
3.491586	436.759294	45.201000
3.494908	436.562339	45.301000
3.498056	436.220780	45.401000
3.499157	436.208869	45.501000
3.497709	436.287088	45.601000
3.494101	436.505681	45.701000
3.491880	436.788334	45.801000
3.493928	436.649784	45.901000
3.498317	436.344367	46.001000
3.499415	436.147164	46.101000
3.496540	436.384137	46.201000
3.492949	436.752638	46.301000
3.492098	436.773161	46.401000
3.495159	436.547941	46.501000
3.498916	436.236876	46.601000
3.499327	436.262533	46.701000
3.495928	436.524235	46.801000
3.493025	436.672920	46.901000
3.492532	436.716780	47.001000
3.495987	436.459684	47.101000
3.499395	436.239913	47.201000
3.498844	436.258225	47.301000
3.496480	436.471326	47.401000
3.493529	436.727796	47.501000
3.492964	436.766924	47.601000
3.495513	436.550666	47.701000
3.499931	436.186529	47.801000
3.499810	436.103813	47.901000
3.495366	436.494461	48.001000
3.491953	436.802230	48.101000
3.493755	436.724322	48.201000
3.497506	436.395868	48.301000
3.499589	436.299104	48.401000
3.498634	436.399765	48.501000
3.495931	436.476379	48.601000
3.493008	436.706250	48.701000
3.493306	436.744320	48.801000
3.497416	436.441561	48.901000
3.500166	436.210030	49.001000
3.498972	436.299094	49.101000
3.495375	436.531907	49.201000
3.492859	436.760392	49.301000
3.493570	436.768702	49.401000
3.497151	436.409171	49.501000
3.500216	436.160351	49.601000
3.499261	436.257693	49.701000
3.494976	436.585544	49.801000
3.492181	436.890350	49.901000
3.493355	436.722687	50.001000
3.497478	436.368470	50.101000
3.499010	436.241724	50.201000
3.498455	436.325996	50.301000
3.495515	436.525273	50.401000
3.492956	436.700842	50.501000
3.492654	436.755083	50.601000
3.496311	436.465951	50.701000
3.499767	436.223077	50.801000
3.499431	436.265768	50.901000
3.494876	436.627504	51.001000
3.492171	436.761429	51.101000
3.493371	436.669947	51.201000
3.497088	436.402965	51.301000
3.499862	436.132979	51.401000
3.498880	436.232838	51.501000
3.495165	436.592666	51.601000
3.491945	436.845600	51.701000
3.493753	436.688623	51.801000
3.497544	436.287399	51.901000
3.499671	436.234597	52.001000
3.498467	436.224855	52.101000
3.495694	436.439464	52.201000
3.492658	436.785537	52.301000
3.493448	436.674397	52.401000
3.496868	436.468053	52.501000
3.499997	436.158795	52.601000
3.498655	436.259854	52.701000
3.493928	436.640161	52.801000
3.491833	436.794995	52.901000
3.493976	436.579574	53.001000
3.497616	436.373333	53.101000
3.499547	436.192571	53.201000
3.498350	436.277546	53.301000
3.494175	436.628623	53.401000
3.492114	436.762984	53.501000
3.493497	436.626911	53.601000
3.498070	436.371471	53.701000
3.500223	436.150389	53.801000
3.497663	436.390655	53.901000
3.493715	436.625370	54.001000
3.492441	436.688027	54.101000
3.494305	436.689509	54.201000
3.497994	436.293406	54.301000
3.500045	436.133607	54.401000
3.497342	436.421836	54.501000
3.492733	436.708548	54.601000
3.492250	436.733284	54.701000
3.495718	436.539836	54.801000
3.498959	436.348200	54.901000
3.498348	436.427655	55.001000
3.496003	436.497082	55.101000
3.493574	436.711348	55.201000
3.492669	436.742848	55.301000
3.495658	436.536861	55.401000
3.499243	436.221319	55.501000
3.499667	436.154458	55.601000
3.495457	436.471519	55.701000
3.491910	436.808609	55.801000
3.492584	436.742033	55.901000
3.496557	436.447611	56.001000
3.499143	436.222969	56.101000
3.498761	436.187936	56.201000
3.495056	436.606578	56.301000
3.491824	436.798462	56.401000
3.492750	436.693585	56.501000
3.496643	436.517868	56.601000
3.499532	436.262891	56.701000
3.497918	436.331701	56.801000
3.494010	436.625405	56.901000
3.492735	436.702790	57.001000
3.493595	436.666570	57.101000
3.497077	436.301056	57.201000
3.499395	436.252955	57.301000
3.498255	436.273429	57.401000
3.493605	436.614482	57.501000
3.491261	436.826511	57.601000
3.493861	436.685285	57.701000
3.498653	436.249069	57.801000
3.499308	436.204971	57.901000
3.496539	436.415264	58.001000
3.493516	436.643707	58.101000
3.491863	436.698919	58.201000
3.494101	436.495192	58.301000
3.497987	436.273832	58.401000
3.499230	436.163971	58.501000
3.496144	436.394608	58.601000
3.492261	436.738015	58.701000
3.492029	436.706701	58.801000
3.494974	436.529380	58.901000
3.498338	436.325921	59.001000
3.498106	436.372537	59.101000
3.495687	436.422133	59.201000
3.492115	436.677950	59.301000
3.491228	436.792462	59.401000
3.495118	436.442602	59.501000
3.499271	436.125088	59.601000
3.498484	436.217297	59.701000
3.494167	436.529018	59.801000
3.491708	436.736181	59.901000
3.492594	436.749375	60.001000
3.495691	436.466112	60.101000
3.498588	436.232505	60.201000
3.498193	436.210623	60.301000
3.494833	436.464536	60.401000
3.491173	436.807202	60.501000
3.491814	436.712030	60.601000
3.496288	436.439686	60.701000
3.498432	436.234487	60.801000
3.497491	436.275694	60.901000
3.493600	436.636405	61.001000
3.491716	436.763549	61.101000
3.492426	436.670614	61.201000
3.496325	436.402595	61.301000
3.499324	436.187511	61.401000
3.497354	436.349242	61.501000
3.492583	436.577944	61.601000
3.491160	436.799223	61.701000
3.493546	436.583531	61.801000
3.497057	436.282222	61.901000
3.498107	436.205590	62.001000
3.496302	436.301558	62.101000
3.493079	436.511235	62.201000
3.490742	436.773517	62.301000
3.492659	436.666248	62.401000
3.497364	436.280305	62.501000
3.498741	436.181657	62.601000
3.495368	436.349617	62.701000
3.491731	436.616509	62.801000
3.491371	436.698473	62.901000
3.494178	436.458573	63.001000
3.497940	436.152305	63.101000
3.498007	436.211940	63.201000
3.495071	436.445908	63.301000
3.491297	436.729594	63.401000
3.490718	436.769887	63.501000
3.494564	436.467585	63.601000
3.498112	436.153871	63.701000
3.497326	436.225245	63.801000
3.493995	436.454029	63.901000
3.491165	436.719063	64.001000
3.491940	436.723000	64.101000
3.494656	436.521494	64.201000
3.498182	436.209540	64.301000
3.498353	436.125903	64.401000
3.493400	436.472201	64.501000
3.490576	436.757158	64.601000
3.492148	436.656551	64.701000
3.496587	436.304816	64.801000
3.498264	436.173581	64.901000
3.496013	436.400786	65.001000
3.492805	436.561492	65.101000
3.490789	436.736600	65.201000
3.492626	436.565286	65.301000
3.496290	436.307105	65.401000
3.498115	436.166351	65.501000
3.495564	436.376518	65.601000
3.491450	436.682102	65.701000
3.490480	436.731802	65.801000
3.493540	436.555988	65.901000
3.496783	436.218970	66.001000
